Accl X	Accl Y	Accl Z	Gyro X	Gyro Y	Gyro Z	Mag X	Mag Y	Mag Z	RPkt#	Rtime	LPkt#	Ltime
-492	105	3999	-865	-845	-9080	-35	-17	173	0	0	0	72875893
-505	74	4049	-860	-839	-9073	-19	1	165	1	53	1	72875904
-521	161	4146	-830	-838	-9063	-19	1	165	2	153	2	72875904
-482	193	4144	-834	-844	-9048	-28	-4	156	3	206	3	72875908
-494	126	4095	-867	-846	-9068	-28	-4	156	4	306	4	72875941
-525	125	3995	-848	-839	-9075	-19	1	163	5	359	5	72875941
-482	173	3983	-838	-844	-9071	-19	1	163	6	459	6	72875944
-492	129	4086	-861	-842	-9065	-13	9	151	7	512	7	72875945
-532	100	4126	-865	-840	-9072	-13	9	151	8	613	8	72875948
-489	154	4076	-842	-851	-9075	-20	-6	158	9	665	9	72875949
-487	141	4028	-854	-840	-9087	-20	-6	158	10	765	10	72875949
-510	100	4040	-865	-839	-9072	-3	19	141	11	818	11	72875952
-483	121	4039	-845	-844	-9062	-3	19	141	12	918	12	72875952
-503	142	4093	-838	-839	-9068	-20	8	146	13	971	13	72875987
-502	119	4059	-850	-846	-9071	-5	9	145	15	993	14	72875990
-525	140	4046	-839	-839	-9081	-5	9	145	16	1093	15	72875991
-496	134	4037	-848	-845	-9078	-10	18	142	17	1146	16	72875992
-506	140	4095	-858	-842	-9081	-10	18	142	18	1247	17	72875994
-521	144	4093	-856	-840	-9088	-12	22	140	19	1300	18	72875995
-486	142	4053	-852	-847	-9060	-12	22	140	20	1400	19	72875999
-483	127	4059	-852	-843	-9076	0	24	128	21	1453	20	72876002
-505	115	4052	-859	-847	-9101	0	24	128	22	1553	21	72876003
-478	125	4051	-851	-846	-9073	-3	17	147	23	1606	22	72876037
-498	143	4054	-843	-839	-9050	-3	17	147	24	1706	23	72876038
-502	139	4061	-851	-843	-9074	0	18	138	25	1759	24	72876039
-501	119	4039	-853	-838	-9071	0	18	138	26	1859	25	72876041
-496	154	4040	-836	-837	-9070	3	27	133	27	1912	26	72876042
-499	145	4054	-850	-844	-9082	3	27	133	28	2012	27	72876044
-511	123	4096	-858	-833	-9091	-3	29	129	29	2065	28	72876045
-497	149	4063	-850	-842	-9051	-3	29	129	30	2165	29	72876048
-490	134	4076	-855	-847	-9050	9	29	125	31	2218	30	72876049
-490	109	4031	-859	-842	-9096	9	29	125	32	2319	31	72876052
-477	125	4053	-853	-848	-9058	6	30	130	33	2371	32	72876083
-498	135	4066	-846	-844	-9080	6	30	130	34	2471	33	72876083
-480	121	4077	-851	-843	-9083	15	33	127	35	2524	34	72876087
-491	107	4080	-852	-847	-9072	15	33	127	36	2624	35	72876087
-492	116	4061	-849	-842	-9065	15	41	123	37	2677	36	72876089
-477	141	4037	-847	-840	-9062	15	41	123	38	2777	37	72876091
-498	116	4057	-851	-842	-9064	18	40	116	39	2830	38	72876091
-494	135	4066	-849	-840	-9070	18	40	116	40	2930	39	72876096
-491	147	4094	-848	-832	-9058	27	37	123	41	2983	40	72876096
-499	143	4041	-854	-837	-9081	27	37	123	42	3084	41	72876099
-502	133	4046	-855	-845	-9073	20	36	124	43	3136	42	72876132
-487	136	4044	-848	-843	-9076	20	36	124	44	3236	43	72876133
-483	123	4047	-850	-844	-9059	27	37	115	45	3289	44	72876136
-476	115	4066	-854	-850	-9054	27	37	115	46	3389	45	72876136
-478	126	4074	-848	-849	-9074	24	46	112	47	3442	46	72876140
-492	126	4055	-850	-844	-9079	24	46	112	48	3542	47	72876140
-463	135	4032	-849	-840	-9086	22	44	110	49	3595	48	72876141
-490	131	4052	-852	-835	-9072	22	44	110	50	3695	49	72876145
-491	136	4051	-852	-833	-9087	31	41	109	51	3748	50	72876146
-492	131	4078	-851	-837	-9068	31	41	109	52	3848	51	72876150
-511	138	4070	-855	-839	-9080	32	44	114	53	3901	52	72876181
-478	126	4040	-854	-838	-9091	32	44	114	54	4001	53	72876182
-496	127	4057	-853	-839	-9045	37	47	105	55	4054	54	72876184
-472	124	4073	-850	-846	-9074	37	47	105	56	4154	55	72876185
-478	135	4072	-849	-845	-9062	36	48	108	57	4207	56	72876188
-504	130	4080	-846	-844	-9059	36	48	108	58	4307	57	72876189
-472	128	4044	-848	-844	-9090	38	50	106	59	4360	58	72876190
-465	144	4049	-852	-840	-9071	38	50	106	60	4460	59	72876194
-473	130	4057	-853	-841	-9078	33	53	105	61	4513	60	72876195
-474	123	4072	-852	-839	-9049	33	53	105	62	4614	61	72876228
-459	112	4070	-857	-837	-9056	37	47	107	63	4666	62	72876229
-488	130	4062	-850	-838	-9066	37	47	107	64	4766	63	72876230
-502	133	4068	-851	-837	-9089	39	51	109	65	4819	64	72876232
-508	131	4069	-852	-840	-9079	39	51	109	66	4919	65	72876232
-487	128	4099	-850	-845	-9074	44	54	102	67	4972	66	72876236
-494	153	4065	-848	-845	-9066	44	54	102	68	5072	67	72876236
-491	145	4053	-847	-847	-9061	44	52	104	69	5125	68	72876238
-467	126	4037	-853	-852	-9054	44	52	104	70	5225	69	72876245
-484	118	4045	-849	-849	-9060	46	54	106	71	5278	70	72876245
-452	142	4033	-848	-847	-9068	46	54	106	72	5378	71	72876254
-459	121	4037	-857	-844	-9088	51	53	111	73	5431	72	72876255
-483	134	4040	-857	-840	-9064	51	53	111	74	5532	73	72876260
-464	150	4043	-855	-833	-9073	56	50	104	75	5584	74	72876270
-469	140	4064	-853	-836	-9061	56	50	104	76	5684	75	72876271
-440	138	4076	-856	-839	-9068	57	55	111	77	5737	76	72876303
-488	126	4094	-854	-836	-9066	57	55	111	78	5837	77	72876304
-477	128	4077	-844	-839	-9048	61	59	113	79	5890	78	72876306
-477	135	4056	-848	-850	-9059	61	59	113	80	5991	79	72876308
-488	122	4064	-845	-849	-9080	65	61	109	81	6044	80	72876309
-468	150	4086	-843	-846	-9085	65	61	109	82	6144	81	72876311
-445	147	4050	-851	-845	-9065	70	58	112	83	6197	82	72876313
-481	135	4072	-850	-847	-9065	70	58	112	84	6297	83	72876314
-457	152	4058	-849	-846	-9060	76	56	114	85	6350	84	72876315
-454	117	4038	-853	-838	-9060	76	56	114	86	6450	85	72876316
-471	123	4035	-856	-834	-9065	81	47	123	87	6504	86	72876351
-448	150	4071	-854	-834	-9081	81	47	123	88	6604	87	72876351
-486	147	4088	-855	-840	-9092	85	47	121	89	6657	88	72876354
-484	134	4041	-853	-841	-9069	85	47	121	90	6758	89	72876354
-476	147	4070	-850	-843	-9076	92	52	120	91	6810	90	72876357
-479	158	4070	-847	-838	-9075	92	52	120	92	6911	91	72876358
-464	138	4028	-852	-843	-9064	98	46	122	93	6964	92	72876358
-464	139	4051	-851	-843	-9049	98	46	122	94	7064	93	72876362
-463	140	4065	-848	-847	-9055	100	38	124	95	7117	94	72876362
-468	156	4017	-848	-847	-9066	100	38	124	96	7217	95	72876368
-456	138	4034	-855	-845	-9057	108	32	130	97	7270	96	72876401
-476	139	4050	-849	-843	-9062	108	32	130	98	7370	97	72876402
-464	148	4029	-845	-839	-9046	108	24	130	99	7423	98	72876404
-478	138	4081	-855	-842	-9066	108	24	130	100	7523	99	72876405
-466	114	4087	-862	-840	-9073	111	21	127	101	7576	100	72876410
-480	128	4081	-848	-838	-9072	111	21	127	102	7676	101	72876411
-474	138	4044	-845	-841	-9057	107	23	133	103	7729	102	72876411
-471	140	4061	-857	-846	-9057	107	23	133	104	7829	103	72876412
-478	151	4075	-851	-845	-9071	111	5	131	105	7882	104	72876412
-466	159	4071	-843	-848	-9087	111	5	131	106	7982	105	72876415
-461	150	4028	-843	-848	-9068	105	-1	135	107	8035	106	72876449
-460	152	4022	-849	-844	-9061	105	-1	135	108	8135	107	72876449
-464	145	4044	-849	-846	-9062	111	-7	137	109	8188	108	72876452
-478	161	4056	-846	-838	-9078	111	-7	137	110	8288	109	72876452
-446	139	4065	-852	-843	-9067	110	-10	138	111	8341	110	72876454
-479	147	4048	-857	-839	-9078	110	-10	138	112	8441	111	72876456
-478	146	4067	-850	-842	-9079	102	-14	136	113	8494	112	72876456
-468	143	4058	-855	-845	-9080	102	-14	136	114	8594	113	72876462
-472	154	4072	-856	-840	-9057	108	-26	136	115	8647	114	72876462
-455	166	4081	-848	-843	-9078	108	-26	136	116	8747	115	72876505
-460	145	4053	-851	-845	-9065	107	-27	137	117	8800	116	72876506
-468	142	4056	-852	-843	-9060	107	-27	137	118	8900	117	72876506
-471	135	4048	-847	-841	-9058	107	-27	139	119	8953	118	72876509
-470	146	4066	-844	-839	-9074	107	-27	139	120	9053	119	72876509
-469	159	4051	-848	-843	-9070	99	-33	139	121	9106	120	72876513
-473	162	4071	-851	-846	-9048	99	-33	139	122	9207	121	72876513
-485	162	4074	-846	-834	-9057	93	-39	135	123	9259	122	72876515
-467	159	4064	-854	-843	-9069	93	-39	135	124	9360	123	72876517
-480	144	4060	-857	-840	-9066	92	-42	136	125	9412	124	72876517
-455	152	4075	-848	-839	-9073	92	-42	136	126	9512	125	72876520
-451	165	4042	-849	-843	-9080	99	-51	145	127	9565	126	72876521
-474	152	4074	-854	-843	-9064	99	-51	145	128	9665	127	72876524
-478	134	4053	-852	-846	-9059	87	-57	149	129	9718	128	72876560
-470	154	4044	-846	-844	-9080	87	-57	149	130	9818	129	72876561
-479	157	4057	-845	-839	-9074	86	-52	150	131	9871	130	72876562
-474	145	4052	-855	-843	-9082	86	-52	150	132	9971	131	72876562
-499	148	4060	-855	-839	-9069	79	-49	145	133	10024	132	72876564
-469	179	4064	-848	-843	-9088	79	-49	145	134	10124	133	72876566
-470	175	4059	-850	-843	-9086	79	-59	143	135	10177	134	72876566
-487	169	4069	-856	-840	-9050	79	-59	143	136	10277	135	72876571
-477	165	4076	-854	-839	-9061	77	-65	143	137	10330	136	72876571
-482	156	4076	-853	-846	-9062	77	-65	143	138	10430	137	72876574
-469	157	4071	-854	-846	-9074	72	-62	154	139	10483	138	72876609
-462	154	4072	-854	-848	-9093	72	-62	154	140	10583	139	72876612
-468	166	4050	-847	-842	-9077	70	-66	152	141	10636	140	72876613
-480	169	4046	-848	-847	-9082	70	-66	152	142	10736	141	72876615
-482	155	4053	-854	-842	-9072	67	-67	143	143	10789	142	72876616
-481	161	4067	-851	-842	-9073	67	-67	143	144	10889	143	72876621
-483	167	4028	-849	-844	-9081	62	-64	148	145	10942	144	72876622
-488	178	4055	-850	-841	-9082	62	-64	148	146	11042	145	72876622
-495	143	4072	-854	-839	-9087	61	-71	149	147	11095	146	72876622
-488	158	4079	-853	-842	-9086	61	-71	149	148	11195	147	72876631
-479	157	4064	-850	-843	-9065	63	-73	157	149	11248	148	72876631
-470	164	4063	-854	-846	-9073	63	-73	157	150	11348	149	72876631
-483	162	4055	-853	-845	-9087	55	-73	153	151	11401	150	72876669
-456	167	4072	-852	-845	-9104	55	-73	153	152	11502	151	72876671
-481	167	4069	-848	-844	-9086	56	-78	156	153	11555	152	72876671
-483	172	4068	-851	-841	-9106	56	-78	156	154	11655	153	72876672
-471	169	4040	-854	-842	-9091	55	-73	149	155	11708	154	72876673
-459	162	4051	-855	-844	-9095	55	-73	149	156	11808	155	72876674
-508	174	4069	-850	-833	-9080	52	-76	152	157	11861	156	72876675
-474	170	4074	-850	-843	-9068	52	-76	152	158	11961	157	72876685
-496	173	4074	-850	-843	-9088	54	-80	156	159	12014	158	72876686
-489	173	4057	-852	-843	-9074	54	-80	156	160	12114	159	72876686
-481	172	4058	-852	-844	-9081	41	-79	157	161	12167	160	72876716
-501	171	4056	-852	-839	-9085	41	-79	157	162	12267	161	72876716
-490	180	4067	-850	-848	-9080	44	-82	154	163	12320	162	72876719
-491	153	4062	-852	-846	-9067	44	-82	154	164	12420	163	72876720
-498	163	4057	-850	-841	-9066	41	-77	151	165	12473	164	72876722
-476	170	4044	-851	-848	-9077	41	-77	151	166	12573	165	72876723
-511	184	4029	-849	-842	-9085	40	-78	148	167	12626	166	72876724
-492	169	4050	-857	-838	-9084	40	-78	148	168	12727	167	72876729
-473	159	4071	-853	-839	-9072	38	-82	156	169	12779	168	72876730
-493	152	4070	-852	-839	-9071	38	-82	156	170	12879	169	72876732
-482	159	4058	-853	-839	-9082	36	-88	152	171	12932	170	72876765
-515	156	4033	-853	-842	-9074	36	-88	152	172	13032	171	72876765
-496	168	4057	-848	-843	-9101	35	-85	155	173	13085	172	72876768
-483	186	4080	-849	-845	-9087	35	-85	155	174	13185	173	72876769
-511	182	4088	-857	-843	-9067	25	-87	155	175	13238	174	72876772
-480	171	4048	-854	-848	-9093	25	-87	155	176	13338	175	72876772
-481	164	4045	-850	-839	-9082	25	-79	157	177	13391	176	72876772
-502	155	4055	-856	-839	-9074	25	-79	157	178	13491	177	72876778
-496	166	4067	-854	-840	-9081	17	-85	159	179	13544	178	72876780
-504	176	4058	-851	-837	-9103	17	-85	159	180	13644	179	72876812
-474	175	4066	-852	-839	-9092	21	-85	155	181	13697	180	72876813
-501	180	4052	-852	-841	-9084	21	-85	155	182	13797	181	72876815
-490	178	4052	-852	-837	-9078	21	-89	153	183	13850	182	72876816
-508	171	4046	-850	-844	-9073	21	-89	153	184	13950	183	72876817
-492	174	4046	-850	-844	-9065	16	-88	154	185	14003	184	72876820
-502	177	4059	-854	-845	-9080	16	-88	154	186	14103	185	72876821
-484	160	4082	-854	-844	-9064	13	-87	147	187	14156	186	72876822
-499	149	4065	-849	-844	-9073	13	-87	147	188	14256	187	72876827
-497	157	4040	-845	-850	-9073	9	-85	149	189	14309	188	72876828
-494	160	4044	-852	-844	-9097	9	-85	149	190	14409	189	72876862
-511	188	4064	-852	-842	-9099	8	-84	154	191	14462	190	72876863
-507	166	4057	-850	-842	-9088	8	-84	154	192	14562	191	72876864
-510	170	4055	-852	-844	-9098	5	-87	149	193	14615	192	72876866
-506	152	4043	-854	-844	-9108	5	-87	149	194	14716	193	72876874
-487	146	4040	-851	-841	-9087	3	-81	147	195	14768	194	72876875
-513	164	4076	-845	-840	-9068	3	-81	147	196	14868	195	72876875
-494	176	4074	-849	-839	-9062	2	-84	146	197	14921	196	72876876
-496	171	4049	-855	-843	-9063	2	-84	146	198	15021	197	72876879
-507	164	4048	-850	-842	-9075	-2	-78	152	199	15074	198	72876880
-503	172	4035	-852	-841	-9106	-2	-78	152	200	15174	199	72876909
-498	178	4066	-855	-842	-9088	-3	-77	145	201	15227	200	72876909
-490	159	4054	-852	-839	-9068	-3	-77	145	202	15327	201	72876913
-504	161	4067	-852	-842	-9089	-16	-80	144	203	15380	202	72876913
-513	169	4046	-850	-845	-9077	-16	-80	144	204	15480	203	72876915
-496	156	4070	-848	-840	-9080	-20	-76	142	205	15533	204	72876917
-512	180	4098	-850	-839	-9080	-20	-76	142	206	15633	205	72876917
-491	156	4044	-852	-844	-9074	-14	-80	138	207	15686	206	72876922
-503	168	4073	-851	-842	-9104	-14	-80	138	208	15786	207	72876922
-503	160	4067	-856	-836	-9058	-20	-80	142	209	15839	208	72876925
-510	147	4043	-856	-843	-9093	-20	-80	142	210	15939	209	72876958
-527	148	4094	-850	-844	-9085	-19	-75	149	211	15992	210	72876959
-509	163	4050	-845	-841	-9077	-19	-75	149	212	16092	211	72876967
-499	169	4066	-852	-844	-9045	-32	-72	142	213	16145	212	72876967
-513	150	4066	-850	-843	-9075	-32	-72	142	214	16245	213	72876969
-501	157	4058	-850	-845	-9093	-32	-72	140	215	16298	214	72876970
-528	169	4071	-851	-843	-9082	-32	-72	140	216	16398	215	72876971
-509	154	4072	-851	-838	-9071	-35	-67	133	217	16451	216	72876974
-490	163	4060	-851	-843	-9068	-35	-67	133	218	16551	217	72876974
-524	159	4046	-850	-839	-9074	-37	-55	139	219	16604	218	72876978
-508	143	4067	-849	-841	-9064	-37	-55	139	220	16704	219	72877013
-508	133	4053	-850	-847	-9084	-37	-67	145	221	16757	220	72877014
-505	163	4050	-851	-843	-9073	-37	-67	145	222	16858	221	72877015
-505	153	4064	-849	-844	-9075	-47	-65	143	223	16911	222	72877016
-513	137	4045	-855	-843	-9078	-47	-65	143	224	17011	223	72877019
-492	138	4035	-852	-846	-9084	-46	-60	144	225	17064	224	72877020
-496	148	4060	-849	-846	-9087	-46	-60	144	226	17164	225	72877022
-514	148	4046	-845	-838	-9067	-51	-55	139	227	17217	226	72877023
-511	154	4077	-848	-845	-9057	-51	-55	139	228	17317	227	72877024
-499	162	4050	-850	-847	-9068	-49	-57	141	229	17370	228	72877032
-503	172	4050	-847	-840	-9037	-49	-57	141	230	17470	229	72877032
-515	154	4060	-853	-841	-9064	-48	-60	148	231	17523	230	72877035
-500	155	4052	-857	-838	-9071	-48	-60	148	232	17623	231	72877073
-508	148	4076	-854	-838	-9051	-57	-41	145	233	17676	232	72877073
-522	155	4059	-854	-843	-9043	-57	-41	145	234	17776	233	72877074
-520	155	4061	-850	-842	-9087	-57	-45	149	235	17829	234	72877075
-496	155	4062	-847	-842	-9087	-57	-45	149	236	17929	235	72877077
-511	146	4072	-853	-843	-9074	-58	-36	150	237	17982	236	72877080
-508	147	4053	-852	-849	-9059	-58	-36	150	238	18082	237	72877080
-504	172	4043	-852	-846	-9075	-61	-29	153	239	18135	238	72877080
-516	151	4064	-851	-840	-9065	-61	-29	153	240	18235	239	72877080
-498	151	4053	-857	-846	-9063	-58	-36	158	241	18288	240	72877083
-495	149	4091	-853	-844	-9083	-58	-36	158	242	18388	241	72877117
-505	164	4070	-851	-839	-9098	-70	-16	152	243	18441	242	72877118
-507	143	4067	-852	-846	-9056	-70	-16	152	244	18541	243	72877147
-511	162	4050	-852	-844	-9086	-57	-35	165	245	18594	244	72877148
-514	165	4052	-852	-846	-9081	-57	-35	165	246	18694	245	72877149
-492	131	4046	-853	-842	-9039	-56	-18	162	247	18747	246	72877151
-514	128	4073	-852	-839	-9042	-56	-18	162	248	18847	247	72877151
-512	124	4069	-853	-844	-9092	-57	-7	161	249	18900	248	72877154
-502	157	4066	-850	-844	-9075	-57	-7	161	250	19000	249	72877155
-521	148	4077	-847	-838	-9048	-51	-13	173	251	19053	250	72877157
-518	151	4069	-850	-841	-9088	-51	-13	173	252	19153	251	72877158
-526	152	4053	-848	-840	-9088	-48	-4	162	253	19206	252	72877158
-496	171	4022	-850	-843	-9069	-48	-4	162	254	19306	253	72877162
-490	142	4082	-857	-843	-9074	-46	-20	174	255	19359	254	72877162
-495	126	4071	-854	-842	-9064	-46	-20	174	256	19459	255	72877165
-506	129	4050	-848	-848	-9073	-32	0	170	257	19512	256	72877166
-503	145	4031	-848	-841	-9076	-32	0	170	258	19612	257	72877169
-505	122	4072	-856	-846	-9072	-32	-14	160	259	19665	258	72877203
-518	132	4091	-856	-843	-9080	-32	-14	160	260	19765	259	72877204
-506	146	4070	-849	-850	-9045	-20	-8	172	262	19787	260	72877210
-490	123	4054	-857	-846	-9066	-21	7	159	263	19840	261	72877211
-503	131	4056	-851	-842	-9062	-21	7	159	264	19940	262	72877212
-497	116	4046	-846	-847	-9055	-18	-10	162	265	19993	263	72877213
-506	131	4055	-851	-841	-9073	-18	-10	162	266	20093	264	72877214
-521	134	4060	-852	-840	-9083	-16	8	146	267	20146	265	72877214
-489	125	4080	-848	-845	-9059	-16	8	146	268	20246	266	72877217
-529	144	4050	-848	-841	-9071	-24	0	152	269	20299	267	72877250
-482	145	4029	-854	-847	-9078	-24	0	152	270	20399	268	72877251
-484	123	4063	-856	-845	-9089	-11	7	157	271	20452	269	72877253
-510	126	4068	-854	-842	-9067	-11	7	157	272	20552	270	72877253
-486	138	4066	-850	-849	-9071	-10	6	146	273	20605	271	72877255
-496	133	4064	-848	-840	-9083	-10	6	146	274	20705	272	72877257
-497	136	4062	-855	-843	-9079	-16	6	150	275	20758	273	72877257
-503	132	4022	-855	-842	-9043	-16	6	150	276	20858	274	72877262
-496	127	4067	-845	-838	-9072	-4	20	136	277	20911	275	72877262
-475	135	4077	-851	-839	-9081	-4	20	136	278	21011	276	72877297
-486	120	4087	-855	-844	-9055	-8	10	148	279	21064	277	72877297
-490	128	4074	-850	-840	-9069	-8	10	148	280	21165	278	72877299
-490	120	4051	-848	-839	-9085	1	17	143	281	21217	279	72877301
-516	129	4059	-851	-842	-9062	1	17	143	282	21317	280	72877301
-496	136	4074	-852	-850	-9059	-3	19	135	283	21370	281	72877304
-490	131	4058	-848	-841	-9094	-3	19	135	284	21470	282	72877305
-497	146	4074	-847	-840	-9072	-6	22	132	285	21523	283	72877307
-498	122	4065	-849	-848	-9071	-6	22	132	286	21623	284	72877312
-506	116	4048	-853	-842	-9085	5	27	129	287	21676	285	72877313
-508	111	4077	-849	-843	-9060	5	27	129	288	21776	286	72877349
-505	128	4064	-847	-841	-9044	2	18	140	289	21829	287	72877350
-512	139	4062	-850	-840	-9048	2	18	140	290	21929	288	72877350
-496	144	4041	-848	-846	-9080	11	27	133	291	21982	289	72877351
-498	142	4075	-847	-840	-9070	11	27	133	292	22082	290	72877351
-501	147	4056	-848	-844	-9056	6	32	130	293	22135	291	72877354
-503	128	4073	-852	-842	-9090	6	32	130	294	22235	292	72877355
-511	140	4065	-853	-843	-9064	7	33	127	295	22288	293	72877357
-478	126	4050	-852	-848	-9053	7	33	127	296	22388	294	72877362
-490	128	4075	-854	-839	-9070	15	33	125	297	22441	295	72877363
-481	148	4054	-847	-840	-9067	15	33	125	298	22541	296	72877372
-485	133	4059	-847	-844	-9081	19	35	137	299	22594	297	72877372
-522	122	4052	-855	-843	-9068	19	35	137	300	22694	298	72877383
-464	139	4075	-850	-842	-9070	24	38	124	301	22747	299	72877383
-485	124	4065	-851	-839	-9094	24	38	124	302	22847	300	72877383
-489	118	4054	-853	-840	-9048	16	34	126	303	22900	301	72877420
-472	105	4091	-847	-844	-9047	16	34	126	304	23000	302	72877421
-491	136	4051	-847	-836	-9078	24	38	124	305	23053	303	72877423
-486	139	4073	-850	-841	-9078	24	38	124	306	23153	304	72877424
-496	143	4049	-848	-843	-9070	28	42	120	307	23206	305	72877425
-496	136	4055	-853	-839	-9062	28	42	120	308	23306	306	72877431
-479	123	4046	-852	-844	-9074	30	46	116	309	23359	307	72877432
-479	124	4067	-855	-843	-9062	30	46	116	310	23459	308	72877432
-484	123	4056	-857	-844	-9050	29	43	107	311	23512	309	72877433
-496	121	4033	-851	-842	-9066	29	43	107	312	23612	310	72877434
-502	139	4073	-845	-841	-9079	29	41	117	313	23665	311	72877475
-496	124	4064	-850	-841	-9058	29	41	117	314	23765	312	72877481
-480	138	4074	-850	-840	-9074	32	46	112	315	23818	313	72877481
-492	126	4074	-844	-840	-9068	32	46	112	316	23918	314	72877482
-483	135	4048	-849	-846	-9054	32	54	110	317	23971	315	72877483
-476	123	4045	-854	-840	-9053	32	54	110	318	24071	316	72877483
-496	108	4055	-851	-839	-9093	34	46	108	319	24124	317	72877484
-468	148	4058	-850	-842	-9089	34	46	108	320	24224	318	72877484
-476	138	4072	-851	-839	-9065	35	49	103	321	24277	319	72877485
-486	129	4055	-852	-843	-9073	35	49	103	322	24377	320	72877514
-499	116	4040	-852	-845	-9063	44	48	106	323	24430	321	72877514
-486	140	4074	-852	-844	-9029	44	48	106	324	24530	322	72877516
-454	130	4042	-853	-847	-9039	39	51	103	325	24583	323	72877518
-471	114	4055	-853	-844	-9076	39	51	103	326	24683	324	72877518
-478	120	4048	-850	-841	-9085	42	58	100	327	24736	325	72877522
-472	108	4050	-850	-842	-9079	42	58	100	328	24836	326	72877522
-481	128	4074	-847	-841	-9073	44	58	100	329	24889	327	72877524
-465	137	4054	-846	-845	-9090	44	58	100	330	24990	328	72877531
-483	117	4073	-854	-843	-9050	55	49	107	331	25043	329	72877531
-473	127	4078	-850	-842	-9063	55	49	107	332	25143	330	72877540
-459	136	4065	-849	-843	-9080	57	55	113	333	25196	331	72877542
-500	131	4076	-854	-845	-9086	57	55	113	334	25296	332	72877544
-461	112	4061	-854	-846	-9060	45	53	113	335	25349	333	72877578
-476	144	4062	-848	-839	-9054	45	53	113	336	25449	334	72877579
-479	163	4056	-851	-840	-9056	56	50	110	337	25502	335	72877581
-461	138	4042	-856	-845	-9059	56	50	110	338	25602	336	72877582
-474	137	4059	-852	-841	-9068	63	57	109	339	25655	337	72877584
-468	149	4050	-845	-839	-9064	63	57	109	340	25755	338	72877586
-459	134	4074	-856	-848	-9070	63	59	105	341	25808	339	72877586
-479	125	4051	-859	-839	-9063	63	59	105	342	25908	340	72877589
-470	143	4055	-847	-842	-9063	67	51	115	343	25961	341	72877590
-483	155	4051	-848	-843	-9064	67	51	115	344	26061	342	72877600
-484	145	4070	-855	-840	-9061	66	54	118	345	26114	343	72877601
-481	142	4082	-855	-843	-9071	66	54	118	346	26214	344	72877602
-473	147	4037	-844	-844	-9079	82	52	116	347	26267	345	72877637
-445	147	4055	-855	-846	-9061	82	52	116	348	26367	346	72877637
-461	122	4048	-855	-841	-9066	81	51	121	349	26420	347	72877640
-473	137	4069	-843	-840	-9070	81	51	121	350	26520	348	72877641
-447	143	4076	-848	-840	-9091	86	48	116	351	26573	349	72877643
-483	140	4075	-857	-841	-9058	86	48	116	352	26673	350	72877644
-462	143	4054	-848	-840	-9083	90	46	122	353	26726	351	72877645
-480	145	4073	-851	-842	-9074	90	46	122	354	26826	352	72877648
-468	134	4076	-856	-838	-9087	101	37	123	355	26879	353	72877649
-469	148	4066	-855	-840	-9069	101	37	123	356	26979	354	72877654
-467	140	4064	-847	-841	-9086	98	34	126	357	27032	355	72877690
-470	146	4054	-847	-843	-9071	98	34	126	358	27132	356	72877693
-464	115	4052	-852	-844	-9041	106	26	130	359	27185	357	72877693
-474	148	4060	-845	-841	-9071	106	26	130	360	27285	358	72877694
-462	163	4079	-847	-843	-9072	109	27	127	361	27338	359	72877694
-463	148	4051	-853	-845	-9071	109	27	127	362	27438	360	72877694
-450	143	4045	-850	-839	-9060	114	16	128	363	27491	361	72877695
-444	150	4033	-843	-846	-9072	114	16	128	364	27591	362	72877698
-468	149	4071	-851	-845	-9070	111	11	131	365	27644	363	72877698
-457	143	4050	-852	-838	-9059	111	11	131	366	27744	364	72877701
-463	144	4039	-846	-844	-9060	115	1	139	367	27797	365	72877734
-472	161	4051	-845	-841	-9066	115	1	139	368	27897	366	72877736
-485	135	4048	-857	-840	-9058	104	-2	140	369	27950	367	72877739
-461	132	4068	-852	-839	-9060	104	-2	140	370	28051	368	72877741
-483	166	4053	-841	-846	-9069	116	-8	130	371	28103	369	72877743
-452	144	4052	-851	-846	-9068	116	-8	130	372	28203	370	72877744
-466	115	4066	-860	-843	-9070	104	-8	138	373	28256	371	72877745
-458	151	4062	-841	-841	-9100	104	-8	138	374	28356	372	72877747
-470	156	4033	-845	-843	-9075	108	-22	140	375	28409	373	72877749
-466	138	4051	-853	-837	-9069	108	-22	140	376	28509	374	72877786
-468	146	4065	-850	-839	-9073	109	-27	141	377	28562	375	72877786
-476	175	4053	-844	-844	-9087	109	-27	141	378	28662	376	72877788
-480	172	4050	-853	-842	-9079	106	-26	140	379	28715	377	72877789
-461	139	4064	-857	-842	-9060	106	-26	140	380	28815	378	72877790
-479	152	4087	-846	-841	-9066	101	-31	135	381	28868	379	72877793
-471	150	4039	-847	-845	-9066	101	-31	135	382	28968	380	72877794
-487	153	4057	-852	-842	-9066	97	-37	137	383	29021	381	72877796
-486	158	4083	-847	-842	-9070	97	-37	137	384	29121	382	72877797
-460	161	4059	-849	-845	-9067	96	-42	140	385	29174	383	72877801
-482	143	4043	-853	-837	-9065	96	-42	140	386	29275	384	72877832
-479	148	4048	-855	-843	-9053	93	-47	147	387	29327	385	72877832
-462	154	4040	-848	-841	-9072	93	-47	147	388	29428	386	72877834
-482	160	4055	-850	-843	-9076	88	-46	148	389	29481	387	72877835
-462	146	4044	-855	-846	-9078	88	-46	148	390	29581	388	72877836
-478	148	4051	-850	-844	-9071	83	-49	135	391	29634	389	72877839
-466	167	4035	-847	-846	-9074	83	-49	135	392	29734	390	72877839
-472	166	4052	-856	-840	-9067	86	-50	142	393	29787	391	72877842
-496	168	4045	-851	-836	-9055	86	-50	142	394	29888	392	72877847
-484	176	4067	-847	-847	-9071	80	-62	150	395	29940	393	72877847
-465	167	4054	-852	-845	-9069	80	-62	150	396	30040	394	72877857
-480	150	4062	-852	-838	-9073	82	-62	154	397	30094	395	72877858
-458	165	4047	-847	-847	-9068	82	-62	154	398	30194	396	72877862
-487	187	4048	-848	-841	-9074	74	-66	146	399	30247	397	72877870
-475	159	4046	-857	-841	-9077	74	-66	146	400	30347	398	72877871
-485	160	4057	-849	-842	-9058	69	-65	147	401	30400	399	72877905
-487	177	4043	-846	-841	-9070	69	-65	147	402	30500	400	72877906
-447	166	4042	-849	-846	-9085	74	-66	154	403	30553	401	72877909
-490	158	4034	-857	-837	-9073	74	-66	154	404	30653	402	72877909
-502	176	4073	-846	-842	-9072	64	-64	150	405	30706	403	72877912
-479	167	4052	-849	-846	-9094	64	-64	150	406	30806	404	72877913
-468	174	4064	-854	-843	-9070	64	-70	148	407	30859	405	72877913
-496	152	4040	-850	-841	-9076	64	-70	148	408	30960	406	72877917
-460	168	4054	-847	-846	-9076	60	-70	146	409	31012	407	72877917
-480	166	4056	-849	-843	-9069	60	-70	146	410	31112	408	72877920
-479	155	4082	-855	-846	-9055	66	-74	156	411	31165	409	72877953
-489	169	4074	-851	-844	-9049	66	-74	156	412	31265	410	72877954
-481	170	4084	-847	-845	-9076	56	-76	152	413	31318	411	72877957
-458	173	4072	-854	-842	-9086	56	-76	152	414	31418	412	72877957
-481	156	4057	-854	-839	-9069	52	-72	148	415	31471	413	72877959
-480	163	4052	-849	-846	-9100	52	-72	148	416	31571	414	72877961
-489	165	4058	-849	-840	-9072	49	-75	147	417	31625	415	72877961
-481	150	4079	-852	-842	-9062	49	-75	147	418	31725	416	72877964
-465	158	4065	-852	-843	-9080	53	-77	147	419	31778	417	72877964
-479	165	4054	-850	-843	-9085	53	-77	147	420	31879	418	72877971
-490	156	4045	-850	-841	-9079	49	-79	159	421	31931	419	72878003
-480	166	4075	-848	-839	-9063	49	-79	159	422	32032	420	72878004
-466	176	4063	-850	-843	-9052	49	-81	161	423	32084	421	72878009
-489	184	4055	-853	-845	-9073	49	-81	161	424	32184	422	72878011
-483	169	4061	-856	-837	-9046	44	-80	154	425	32237	423	72878012
-480	174	4065	-850	-843	-9090	44	-80	154	426	32337	424	72878013
-472	166	4038	-849	-848	-9083	36	-74	156	427	32390	425	72878015
-503	165	4095	-851	-840	-9103	36	-74	156	428	32490	426	72878016
-477	169	4074	-848	-840	-9076	34	-86	152	429	32543	427	72878021
-479	188	4030	-845	-839	-9079	34	-86	152	430	32644	428	72878022
-479	171	4050	-851	-843	-9070	32	-86	160	431	32696	429	72878051
-488	167	4049	-854	-845	-9080	32	-86	160	432	32796	430	72878053
-483	169	4059	-850	-840	-9055	33	-83	157	433	32849	431	72878054
-481	177	4055	-849	-842	-9088	33	-83	157	434	32949	432	72878055
-498	154	4076	-850	-839	-9080	27	-83	153	435	33002	433	72878057
-505	152	4061	-852	-841	-9071	27	-83	153	436	33102	434	72878058
-481	161	4051	-847	-843	-9076	28	-76	154	437	33155	435	72878062
-494	184	4059	-852	-838	-9093	28	-76	154	438	33255	436	72878064
-505	163	4055	-852	-840	-9078	23	-85	151	439	33308	437	72878065
-500	184	4065	-852	-847	-9077	23	-85	151	440	33408	438	72878099
-507	171	4050	-852	-845	-9091	27	-87	159	441	33461	439	72878099
-474	155	4050	-855	-846	-9072	27	-87	159	442	33561	440	72878101
-492	158	4041	-852	-844	-9083	17	-85	153	443	33614	441	72878103
-511	165	4028	-847	-841	-9085	17	-85	153	444	33714	442	72878104
-496	185	4061	-849	-842	-9112	18	-84	150	445	33767	443	72878107
-497	170	4034	-854	-840	-9084	18	-84	150	446	33867	444	72878107
-496	182	4039	-852	-844	-9080	8	-80	152	447	33920	445	72878110
-513	172	4061	-851	-841	-9087	8	-80	152	448	34020	446	72878112
-503	157	4062	-858	-840	-9073	11	-83	149	449	34073	447	72878113
-501	144	4042	-853	-846	-9059	11	-83	149	450	34173	448	72878148
-512	171	4084	-849	-841	-9086	11	-87	151	451	34226	449	72878155
-493	175	4048	-846	-838	-9092	11	-87	151	452	34326	450	72878156
-498	183	4062	-850	-847	-9049	6	-86	150	453	34379	451	72878160
-529	172	4055	-848	-846	-9053	6	-86	150	454	34479	452	72878161
-502	151	4046	-850	-845	-9085	4	-80	150	455	34532	453	72878162
-493	152	4097	-854	-840	-9072	4	-80	150	456	34632	454	72878162
-506	155	4047	-853	-841	-9068	3	-81	149	457	34685	455	72878163
-501	167	4069	-854	-844	-9092	3	-81	149	458	34785	456	72878163
-514	165	4077	-854	-841	-9089	-4	-84	146	459	34838	457	72878164
-526	169	4038	-854	-844	-9072	-4	-84	146	460	34938	458	72878194
-508	173	4044	-847	-844	-9059	-8	-80	152	461	34991	459	72878195
-507	161	4061	-851	-839	-9070	-8	-80	152	462	35091	460	72878199
-510	169	4075	-850	-843	-9056	-8	-78	144	463	35144	461	72878200
-498	187	4072	-849	-845	-9059	-8	-78	144	464	35244	462	72878201
-501	155	4069	-849	-841	-9055	-14	-76	144	465	35297	463	72878203
-492	166	4050	-851	-843	-9085	-14	-76	144	466	35397	464	72878203
-503	161	4051	-853	-840	-9065	-18	-74	140	467	35450	465	72878210
-502	182	4058	-848	-846	-9076	-18	-74	140	468	35550	466	72878211
-500	168	4064	-850	-842	-9092	-22	-72	136	469	35603	467	72878212
-523	158	4051	-856	-842	-9084	-22	-72	136	470	35703	468	72878244
-494	167	4084	-854	-846	-9071	-21	-75	143	471	35756	469	72878245
-515	145	4064	-854	-834	-9079	-21	-75	143	472	35856	470	72878248
-516	143	4068	-855	-838	-9073	-21	-73	141	473	35909	471	72878249
-501	153	4059	-849	-846	-9089	-21	-73	141	474	36009	472	72878250
-489	165	4061	-845	-845	-9100	-31	-69	139	475	36062	473	72878252
-511	164	4064	-851	-847	-9059	-31	-69	139	476	36162	474	72878252
-507	162	4038	-851	-842	-9072	-25	-65	137	477	36215	475	72878257
-513	156	4060	-851	-843	-9058	-25	-65	137	478	36315	476	72878257
-505	160	4084	-854	-844	-9063	-39	-65	143	479	36368	477	72878261
-509	153	4066	-853	-842	-9075	-39	-65	143	480	36468	478	72878293
-511	135	4079	-850	-845	-9070	-36	-68	142	481	36521	479	72878293
-518	147	4046	-849	-840	-9092	-36	-68	142	482	36621	480	72878296
-518	128	4067	-851	-840	-9077	-41	-61	133	483	36674	481	72878297
-506	150	4050	-848	-844	-9073	-41	-61	133	484	36774	482	72878300
-514	148	4086	-849	-847	-9056	-46	-58	136	485	36827	483	72878301
-500	163	4069	-850	-838	-9074	-46	-58	136	486	36928	484	72878301
-496	146	4048	-855	-841	-9060	-45	-55	141	487	36980	485	72878305
-518	156	4078	-850	-842	-9080	-45	-55	141	488	37080	486	72878307
-518	143	4084	-851	-847	-9083	-54	-52	140	489	37133	487	72878340
-524	151	4076	-851	-841	-9082	-54	-52	140	490	37233	488	72878341
-513	146	4065	-846	-846	-9095	-48	-58	152	491	37286	489	72878343
-485	143	4047	-848	-845	-9101	-48	-58	152	492	37386	490	72878344
-525	147	4066	-851	-838	-9071	-55	-47	143	493	37439	491	72878345
-498	155	4070	-854	-846	-9067	-55	-47	143	494	37539	492	72878352
-503	149	4082	-854	-841	-9064	-66	-36	154	495	37592	493	72878353
-504	159	4054	-852	-841	-9040	-66	-36	154	496	37692	494	72878354
-513	134	4040	-852	-845	-9050	-56	-42	150	497	37745	495	72878360
-530	160	4056	-850	-847	-9084	-56	-42	150	498	37845	496	72878366
-510	159	4081	-846	-842	-9063	-63	-27	147	499	37898	497	72878366
-495	156	4051	-850	-845	-9066	-63	-27	147	500	37998	498	72878367
-519	146	4078	-850	-842	-9088	-59	-37	159	501	38051	499	72878370
-496	173	4052	-849	-847	-9079	-59	-37	159	502	38151	500	72878380
-515	156	4055	-853	-842	-9082	-65	-25	157	503	38204	501	72878381
-535	143	4052	-853	-837	-9065	-65	-25	157	504	38304	502	72878425
-526	130	4068	-853	-842	-9063	-60	-22	160	505	38357	503	72878426
-506	140	4054	-848	-839	-9093	-60	-22	160	506	38457	504	72878431
-513	159	4052	-853	-844	-9077	-51	-25	167	507	38510	505	72878433
-510	142	4069	-854	-844	-9071	-51	-25	167	508	38610	506	72878434
-512	141	4065	-852	-843	-9084	-63	-5	163	509	38663	507	72878437
-513	143	4057	-853	-843	-9065	-63	-5	163	510	38763	508	72878438
-512	135	4080	-854	-842	-9093	-48	-24	174	511	38816	509	72878440
-506	138	4058	-853	-841	-9072	-48	-24	174	512	38916	510	72878441
-517	151	4066	-850	-844	-9077	-47	1	161	513	38969	511	72878442
-509	140	4081	-845	-841	-9076	-47	1	161	514	39069	512	72878444
-498	139	4056	-848	-844	-9075	-45	-11	163	515	39122	513	72878445
-492	134	4055	-854	-846	-9080	-45	-11	163	516	39223	514	72878452
-524	127	4067	-849	-839	-9054	-32	-8	172	517	39275	515	72878453
-503	147	4043	-849	-843	-9069	-32	-8	172	518	39375	516	72878456
-512	121	4037	-853	-841	-9060	-29	5	161	519	39428	517	72878489
-488	119	4043	-854	-841	-9040	-29	5	161	520	39528	518	72878490
-492	126	4049	-851	-841	-9072	-32	-20	168	521	39581	519	72878492
-504	158	4059	-846	-838	-9059	-32	-20	168	522	39681	520	72878492
-489	149	4062	-851	-843	-9071	-21	9	151	523	39734	521	72878494
-501	146	4077	-854	-843	-9066	-21	9	151	524	39834	522	72878495
-509	141	4075	-850	-844	-9060	-25	-7	157	525	39887	523	72878496
-492	135	4064	-850	-841	-9075	-25	-7	157	526	39987	524	72878504
-515	125	4064	-852	-842	-9050	-13	9	161	527	40040	525	72878504
-512	118	4059	-850	-845	-9050	-13	9	161	528	40140	526	72878507
-490	144	4057	-850	-843	-9080	-18	6	152	529	40193	527	72878514
-498	136	4066	-847	-838	-9056	-18	6	152	530	40293	528	72878515
-502	138	4054	-852	-842	-9067	-20	0	156	531	40346	529	72878526
-504	140	4069	-850	-837	-9075	-20	0	156	532	40446	530	72878526
-500	127	4073	-855	-842	-9089	-7	15	139	533	40499	531	72878528
-497	137	4077	-853	-839	-9081	-7	15	139	534	40599	532	72878561
-497	116	4066	-855	-843	-9065	-15	3	153	535	40652	533	72878561
-499	133	4068	-852	-845	-9092	-15	3	153	536	40752	534	72878564
-500	126	4085	-851	-838	-9071	-7	15	141	537	40805	535	72878564
-507	133	4050	-848	-842	-9077	-7	15	141	538	40905	536	72878567
-492	143	4071	-848	-842	-9075	-8	12	140	539	40958	537	72878568
-498	141	4051	-851	-839	-9087	-8	12	140	540	41058	538	72878569
-500	132	4050	-852	-843	-9057	-7	17	133	541	41111	539	72878573
-513	147	4076	-851	-847	-9053	-7	17	133	542	41211	540	72878574
-520	118	4062	-852	-842	-9066	4	22	136	543	41264	541	72878610
-467	142	4067	-855	-843	-9074	4	22	136	544	41364	542	72878611
-513	115	4072	-849	-841	-9073	-3	19	143	545	41417	543	72878612
-500	122	4052	-849	-841	-9064	-3	19	143	546	41517	544	72878613
-481	126	4072	-852	-842	-9089	7	25	133	547	41570	545	72878613
-506	133	4034	-848	-836	-9079	7	25	133	548	41671	546	72878618
-489	139	4073	-849	-841	-9094	-4	26	136	549	41723	547	72878619
-487	105	4068	-852	-843	-9072	-4	26	136	550	41824	548	72878619
-504	115	4061	-850	-839	-9071	0	28	130	551	41876	549	72878622
-501	115	4043	-849	-844	-9075	0	28	130	552	41976	550	72878622
-500	125	4045	-847	-843	-9088	10	26	130	553	42029	551	72878657
-485	136	4050	-847	-844	-9070	10	26	130	554	42129	552	72878657
-502	131	4110	-852	-839	-9081	3	29	133	555	42182	553	72878660
-488	139	4070	-848	-840	-9085	3	29	133	556	42282	554	72878661
-478	132	4065	-850	-844	-9086	17	35	127	557	42335	555	72878662
-494	127	4041	-854	-841	-9057	17	35	127	558	42435	556	72878664
-492	125	4048	-849	-842	-9078	13	35	123	559	42488	557	72878665
-498	128	4046	-849	-842	-9070	13	35	123	560	42588	558	72878666
-508	112	4079	-850	-836	-9072	10	36	116	561	42641	559	72878673
-475	133	4069	-851	-843	-9075	10	36	116	562	42741	560	72878674
-502	144	4070	-853	-839	-9050	20	40	126	563	42794	561	72878683
-509	138	4047	-853	-844	-9047	20	40	126	564	42894	562	72878684
-493	132	4066	-850	-841	-9057	18	42	128	565	42947	563	72878687
-502	130	4087	-852	-837	-9085	18	42	128	566	43047	564	72878703
-485	111	4056	-849	-845	-9094	29	39	117	567	43100	565	72878703
-500	138	4058	-847	-843	-9080	29	39	117	568	43200	566	72878708
-485	128	4056	-846	-838	-9075	29	41	121	569	43253	567	72878708
-466	128	4048	-849	-845	-9063	29	41	121	570	43353	568	72878710
-482	129	4073	-850	-840	-9068	33	43	115	571	43406	569	72878718
-490	128	4057	-851	-844	-9038	33	43	115	572	43506	570	72878718
-479	123	4041	-847	-848	-9087	29	37	113	573	43559	571	72878754
-485	118	4066	-850	-847	-9083	29	37	113	574	43659	572	72878755
-488	120	4079	-847	-840	-9088	34	48	114	575	43712	573	72878758
-473	125	4050	-851	-841	-9062	34	48	114	576	43812	574	72878759
-493	128	4083	-854	-842	-9068	36	48	110	577	43865	575	72878760
-490	151	4062	-852	-842	-9060	36	48	110	578	43965	576	72878762
-499	135	4048	-849	-836	-9074	38	50	104	579	44018	577	72878762
-487	122	4039	-852	-843	-9067	38	50	104	580	44118	578	72878767
-478	125	4090	-853	-845	-9088	41	45	107	581	44171	579	72878771
-482	115	4047	-853	-843	-9064	41	45	107	582	44271	580	72878771
-468	132	4059	-846	-846	-9068	40	52	112	583	44324	581	72878803
-488	134	4095	-851	-844	-9055	40	52	112	584	44424	582	72878804
-483	145	4075	-849	-842	-9066	36	50	108	585	44477	583	72878807
-471	147	4060	-850	-843	-9057	36	50	108	586	44577	584	72878807
-480	137	4067	-847	-843	-9065	36	50	98	587	44630	585	72878811
-459	137	4064	-851	-846	-9077	36	50	98	588	44730	586	72878813
-472	105	4062	-855	-840	-9059	43	59	109	589	44783	587	72878815
-473	127	4041	-853	-843	-9069	43	59	109	590	44883	588	72878816
-479	124	4072	-848	-843	-9061	48	56	114	591	44936	589	72878821
-495	129	4051	-848	-838	-9062	48	56	114	592	45036	590	72878821
-463	140	4072	-853	-846	-9053	48	52	104	593	45089	591	72878852
-468	127	4086	-848	-844	-9058	48	52	104	594	45189	592	72878852
-478	132	4087	-849	-838	-9074	51	59	111	595	45242	593	72878855
-480	130	4057	-853	-846	-9095	51	59	111	596	45343	594	72878856
-454	118	4064	-851	-842	-9058	54	60	102	597	45395	595	72878858
-460	121	4060	-848	-845	-9078	54	60	102	598	45495	596	72878859
-464	141	4072	-853	-848	-9078	58	56	108	599	45548	597	72878860
-487	133	4054	-853	-842	-9062	58	56	108	600	45648	598	72878864
-454	154	4058	-848	-843	-9066	58	50	106	601	45701	599	72878865
-472	141	4061	-850	-843	-9092	58	50	106	602	45801	600	72878899
-485	153	4056	-853	-840	-9070	74	54	118	603	45854	601	72878900
-470	126	4050	-849	-843	-9064	74	54	118	604	45954	602	72878900
-447	155	4055	-846	-841	-9104	70	56	120	605	46007	603	72878903
-483	132	4047	-851	-839	-9076	70	56	120	606	46107	604	72878903
-459	141	4044	-852	-847	-9077	73	57	111	607	46160	605	72878907
-479	140	4079	-849	-842	-9075	73	57	111	608	46260	606	72878907
-476	132	4080	-847	-842	-9057	81	57	115	609	46313	607	72878910
-483	120	4074	-851	-837	-9048	81	57	115	610	46413	608	72878916
-477	138	4055	-847	-841	-9044	88	48	122	611	46466	609	72878916
-452	137	4056	-849	-843	-9054	88	48	122	612	46566	610	72878925
-478	138	4054	-852	-839	-9063	97	43	129	613	46619	611	72878926
-479	131	4054	-848	-843	-9040	97	43	129	614	46719	612	72878930
-452	148	4058	-849	-845	-9061	92	40	122	615	46772	613	72878964
-478	143	4063	-852	-842	-9079	92	40	122	616	46873	614	72878965
-451	138	4084	-850	-844	-9059	102	42	124	617	46925	615	72878968
-483	145	4068	-845	-845	-9068	102	42	124	618	47025	616	72878968
-475	148	4069	-845	-843	-9091	106	40	130	619	47078	617	72878970
-475	125	4055	-849	-845	-9072	106	40	130	620	47179	618	72878972
-491	121	4062	-848	-841	-9049	111	29	123	621	47231	619	72878972
-459	141	4066	-847	-847	-9094	111	29	123	622	47331	620	72878975
-464	139	4040	-851	-842	-9061	110	22	130	623	47384	621	72878976
-462	149	4052	-850	-840	-9069	110	22	130	624	47484	622	72878979
-454	169	4066	-847	-843	-9087	110	10	134	625	47537	623	72879014
-483	139	4065	-847	-843	-9077	110	10	134	626	47637	624	72879015
-481	144	4077	-852	-839	-9073	108	4	136	627	47690	625	72879022
-455	136	4048	-853	-842	-9052	108	4	136	628	47791	626	72879023
-483	156	4055	-849	-840	-9076	109	3	129	629	47843	627	72879024
-460	155	4052	-850	-842	-9092	109	3	129	630	47944	628	72879024
-454	146	4042	-852	-841	-9058	109	-9	131	631	47996	629	72879025
-464	163	4054	-847	-839	-9033	109	-9	131	632	48096	630	72879026
-475	155	4061	-850	-844	-9052	108	-8	130	633	48149	631	72879028
-474	152	4090	-852	-839	-9060	108	-8	130	634	48249	632	72879036
-453	152	4051	-850	-847	-9039	107	-19	135	635	48302	633	72879036
-466	130	4057	-852	-844	-9062	107	-19	135	636	48402	634	72879036
-478	133	4049	-848	-836	-9072	109	-25	141	637	48455	635	72879068
-461	138	4060	-848	-845	-9065	109	-25	141	638	48555	636	72879069
-477	168	4040	-846	-840	-9071	99	-27	137	639	48608	637	72879071
-482	148	4051	-848	-836	-9075	99	-27	137	640	48708	638	72879072
-472	149	4067	-850	-841	-9095	99	-27	135	641	48761	639	72879073
-476	163	4055	-847	-843	-9049	99	-27	135	642	48861	640	72879075
-469	166	4064	-849	-844	-9069	92	-38	138	643	48914	641	72879076
-482	143	4057	-850	-842	-9076	92	-38	138	644	49015	642	72879084
-476	149	4070	-848	-844	-9066	94	-44	142	645	49067	643	72879085
-466	169	4050	-848	-843	-9061	94	-44	142	646	49167	644	72879089
-477	146	4068	-850	-841	-9056	94	-46	148	647	49220	645	72879121
-478	153	4080	-853	-842	-9074	94	-46	148	648	49320	646	72879121
-454	157	4082	-848	-845	-9052	90	-52	146	649	49373	647	72879124
-478	145	4058	-848	-838	-9055	90	-52	146	650	49473	648	72879124
-465	157	4064	-856	-839	-9081	92	-50	142	651	49526	649	72879127
-480	156	4068	-849	-845	-9070	92	-50	142	652	49626	650	72879128
-453	166	4047	-845	-845	-9056	84	-54	142	653	49679	651	72879128
-473	151	4049	-852	-841	-9093	84	-54	142	654	49779	652	72879132
-475	147	4059	-852	-841	-9061	88	-60	140	655	49832	653	72879132
-470	177	4024	-848	-850	-9052	88	-60	140	656	49932	654	72879138
-482	177	4091	-849	-837	-9061	76	-60	150	657	49985	655	72879171
-489	144	4047	-853	-841	-9067	76	-60	150	658	50085	656	72879171
-483	151	4050	-846	-842	-9051	73	-59	149	659	50138	657	72879174
-473	165	4033	-848	-841	-9073	73	-59	149	660	50238	658	72879174
-462	148	4073	-855	-838	-9102	75	-59	147	661	50291	659	72879176
-490	159	4061	-852	-843	-9090	75	-59	147	662	50391	660	72879178
-461	176	4061	-847	-843	-9064	66	-60	148	663	50444	661	72879178
-465	162	4063	-849	-842	-9084	66	-60	148	664	50544	662	72879181
-486	157	4065	-854	-837	-9080	72	-66	142	665	50597	663	72879182
-467	152	4053	-850	-845	-9083	72	-66	142	666	50697	664	72879220
-475	155	4053	-852	-843	-9084	66	-68	152	667	50750	665	72879221
-484	148	4054	-850	-840	-9084	66	-68	152	668	50850	666	72879222
-481	160	4039	-852	-846	-9063	59	-73	155	669	50903	667	72879222
-493	168	4059	-851	-840	-9049	59	-73	155	670	51003	668	72879223
-478	170	4063	-854	-840	-9078	57	-71	149	671	51056	669	72879224
-467	194	4057	-851	-843	-9083	57	-71	149	672	51156	670	72879225
-493	179	4097	-847	-839	-9052	54	-70	154	673	51209	671	72879229
-469	164	4038	-846	-841	-9082	54	-70	154	674	51309	672	72879231
-476	148	4066	-852	-838	-9095	56	-76	152	675	51362	673	72879232
-490	161	4063	-852	-839	-9111	56	-76	152	676	51462	674	72879267
-484	165	4097	-850	-848	-9101	55	-77	161	677	51515	675	72879270
-486	157	4068	-850	-838	-9087	55	-77	161	678	51615	676	72879270
-486	158	4048	-856	-840	-9069	51	-77	153	679	51668	677	72879270
-476	155	4070	-853	-839	-9073	51	-77	153	680	51768	678	72879271
-496	171	4059	-848	-838	-9055	42	-76	156	681	51821	679	72879274
-494	145	4068	-854	-838	-9061	42	-76	156	682	51921	680	72879274
-486	167	4047	-856	-841	-9080	38	-78	154	683	51974	681	72879277
-484	151	4060	-847	-841	-9075	38	-78	154	684	52074	682	72879279
-493	157	4066	-849	-840	-9094	41	-81	155	685	52127	683	72879279
-511	173	4050	-850	-843	-9074	41	-81	155	686	52227	684	72879314
-481	191	4041	-845	-845	-9045	41	-87	159	687	52280	685	72879315
-480	157	4081	-848	-846	-9071	41	-87	159	688	52380	686	72879316
-501	160	4083	-854	-846	-9086	40	-80	156	689	52433	687	72879318
-493	171	4067	-858	-845	-9083	40	-80	156	690	52533	688	72879319
-493	164	4061	-851	-838	-9072	31	-79	149	691	52586	689	72879321
-481	166	4041	-852	-841	-9072	31	-79	149	692	52686	690	72879322
-497	153	4078	-855	-846	-9088	35	-83	155	693	52739	691	72879324
-526	171	4080	-851	-841	-9085	35	-83	155	694	52839	692	72879325
-480	180	4040	-851	-839	-9102	32	-80	154	695	52892	693	72879326
-504	158	4031	-854	-839	-9092	32	-80	154	696	52992	694	72879362
-498	153	4078	-853	-844	-9079	28	-86	160	697	53045	695	72879363
-472	169	4074	-851	-845	-9066	28	-86	160	698	53145	696	72879366
-485	180	4067	-847	-838	-9076	28	-82	144	699	53198	697	72879366
-506	172	4048	-851	-847	-9089	28	-82	144	700	53299	698	72879368
-493	175	4064	-848	-846	-9081	24	-82	148	701	53351	699	72879369
-484	172	4067	-848	-843	-9078	24	-82	148	702	53451	700	72879370
-489	164	4090	-856	-845	-9074	25	-79	147	703	53504	701	72879377
-503	156	4054	-853	-842	-9083	25	-79	147	704	53604	702	72879377
-476	161	4040	-853	-842	-9059	17	-81	151	705	53657	703	72879379
-497	173	4066	-856	-842	-9079	17	-81	151	706	53757	704	72879412
-507	152	4086	-854	-844	-9065	16	-82	154	707	53810	705	72879413
-492	156	4038	-847	-844	-9083	16	-82	154	708	53910	706	72879416
-492	171	4081	-850	-843	-9063	15	-85	151	709	53963	707	72879416
-499	183	4068	-854	-839	-9076	15	-85	151	710	54063	708	72879423
-503	167	4071	-854	-840	-9062	8	-80	148	711	54116	709	72879426
-501	183	4053	-848	-837	-9090	8	-80	148	712	54216	710	72879430
-504	160	4067	-849	-843	-9088	9	-81	149	713	54269	711	72879431
-495	155	4045	-853	-845	-9087	9	-81	149	714	54369	712	72879432
-507	176	4078	-850	-841	-9071	3	-83	153	715	54422	713	72879432
-492	184	4061	-848	-844	-9077	3	-83	153	716	54522	714	72879437
-478	166	4051	-852	-844	-9080	1	-87	149	717	54575	715	72879438
-485	158	4054	-852	-842	-9087	1	-87	149	718	54675	716	72879474
-499	162	4062	-850	-841	-9069	4	-84	146	719	54728	717	72879476
-515	166	4066	-851	-840	-9080	4	-84	146	720	54828	718	72879483
-506	148	4063	-856	-844	-9084	-1	-79	151	721	54881	719	72879485
-486	149	4050	-848	-842	-9078	-1	-79	151	722	54981	720	72879486
-509	175	4072	-844	-843	-9095	0	-80	142	723	55034	721	72879492
-491	172	4074	-853	-850	-9086	0	-80	142	724	55134	722	72879493
-511	170	4093	-854	-849	-9093	-14	-82	142	725	55187	723	72879494
-511	186	4054	-847	-845	-9082	-14	-82	142	726	55287	724	72879495
-503	162	4024	-852	-844	-9095	-11	-83	145	727	55340	725	72879496
-514	150	4059	-856	-845	-9096	-11	-83	145	728	55440	726	72879501
-502	149	4051	-853	-845	-9078	-21	-75	143	729	55493	727	72879501
-501	159	4050	-850	-841	-9063	-21	-75	143	730	55593	728	72879533
-489	159	4032	-850	-845	-9093	-12	-78	146	731	55646	729	72879533
-511	161	4090	-853	-845	-9078	-12	-78	146	732	55746	730	72879535
-527	169	4067	-851	-838	-9060	-24	-72	142	733	55799	731	72879537
-523	162	4065	-851	-841	-9077	-24	-72	142	734	55899	732	72879537
-510	140	4073	-856	-844	-9075	-25	-67	139	735	55952	733	72879541
-516	163	4058	-850	-844	-9071	-25	-67	139	736	56052	734	72879541
-495	163	4068	-851	-847	-9077	-27	-71	139	737	56105	735	72879543
-506	151	4086	-853	-844	-9075	-27	-71	139	738	56205	736	72879548
-504	167	4051	-848	-844	-9080	-36	-70	142	739	56258	737	72879548
-505	180	4059	-848	-841	-9073	-36	-70	142	740	56358	738	72879583
-524	155	4056	-852	-846	-9068	-41	-69	151	741	56411	739	72879583
-500	148	4060	-851	-840	-9068	-41	-69	151	742	56511	740	72879585
-505	157	4069	-850	-841	-9054	-37	-67	137	743	56564	741	72879587
-534	156	4043	-855	-839	-9087	-37	-67	137	744	56664	742	72879587
-517	152	4063	-856	-845	-9068	-51	-53	131	745	56717	743	72879590
-516	161	4053	-847	-841	-9066	-51	-53	131	746	56817	744	72879591
-509	156	4056	-846	-841	-9046	-45	-57	137	747	56870	745	72879593
-510	143	4075	-855	-843	-9085	-45	-57	137	748	56970	746	72879594
-522	167	4080	-846	-841	-9068	-49	-59	143	749	57023	747	72879595
-515	168	4045	-849	-846	-9061	-49	-59	143	750	57123	748	72879631
-503	145	4081	-853	-843	-9073	-57	-49	149	751	57176	749	72879631
-516	143	4095	-851	-842	-9091	-57	-49	149	752	57276	750	72879634
-491	152	4052	-847	-842	-9051	-55	-53	141	753	57329	751	72879635
-517	160	4056	-847	-838	-9090	-55	-53	141	754	57430	752	72879637
-522	155	4068	-856	-846	-9067	-61	-39	139	755	57483	753	72879638
-522	155	4049	-850	-845	-9082	-61	-39	139	756	57583	754	72879639
-520	158	4035	-848	-839	-9072	-57	-47	149	757	57636	755	72879642
-509	140	4070	-855	-847	-9053	-57	-47	149	758	57736	756	72879643
-517	135	4063	-854	-844	-9083	-59	-41	153	759	57789	757	72879646
-514	149	4049	-851	-843	-9071	-59	-41	153	760	57889	758	72879683
-511	145	4071	-850	-839	-9067	-62	-40	160	761	57942	759	72879684
-523	134	4060	-850	-842	-9102	-62	-40	160	762	58042	760	72879707
-501	157	4048	-847	-847	-9088	-53	-41	157	763	58095	761	72879707
-528	171	4068	-850	-839	-9081	-53	-41	157	764	58195	762	72879709
-513	147	4089	-852	-848	-9083	-67	-15	153	765	58248	763	72879711
-496	143	4074	-857	-847	-9059	-67	-15	153	766	58348	764	72879712
-511	147	4035	-851	-838	-9079	-54	-34	168	767	58401	765	72879714
-505	132	4068	-854	-839	-9066	-54	-34	168	768	58501	766	72879715
-509	139	4086	-854	-841	-9066	-50	-10	162	769	58554	767	72879717
-514	149	4046	-848	-842	-9060	-50	-10	162	770	58654	768	72879718
-501	144	4064	-845	-847	-9069	-58	-14	160	771	58707	769	72879719
-517	129	4045	-849	-848	-9056	-58	-14	160	772	58807	770	72879722
-539	139	4079	-848	-846	-9076	-45	-17	169	773	58860	771	72879723
-495	139	4056	-846	-846	-9073	-45	-17	169	774	58960	772	72879724
-512	139	4049	-853	-838	-9083	-37	-3	165	775	59013	773	72879731
-503	139	4078	-854	-846	-9073	-37	-3	165	776	59113	774	72879732
-516	149	4042	-845	-843	-9083	-38	-20	176	777	59166	775	72879742
-506	145	4046	-847	-843	-9064	-38	-20	176	778	59266	776	72879743
-501	153	4061	-852	-846	-9049	-33	7	163	779	59319	777	72879779
-517	156	4064	-846	-844	-9073	-33	7	163	780	59419	778	72879779
-507	139	4070	-847	-842	-9050	-42	-10	162	781	59472	779	72879780
-513	136	4057	-856	-841	-9061	-42	-10	162	782	59572	780	72879780
-517	123	4082	-850	-839	-9080	-21	3	169	783	59625	781	72879781
-505	134	4034	-847	-842	-9082	-21	3	169	784	59725	782	72879784
-514	135	4066	-849	-839	-9064	-24	0	156	785	59778	783	72879784
-496	144	4063	-848	-844	-9089	-24	0	156	786	59879	784	72879787
-499	131	4055	-847	-840	-9069	-27	-5	159	787	59931	785	72879789
-499	154	4068	-849	-840	-9063	-27	-5	159	788	60032	786	72879790
-483	129	4056	-853	-842	-9062	-17	11	151	789	60084	787	72879831
-519	137	4061	-852	-841	-9065	-17	11	151	790	60184	788	72879831
-505	129	4050	-853	-840	-9105	-16	-6	154	791	60237	789	72879832
-502	134	4050	-854	-844	-9104	-16	-6	154	792	60337	790	72879832
-516	120	4053	-851	-844	-9076	-13	9	147	793	60390	791	72879833
-497	134	4073	-846	-842	-9080	-13	9	147	794	60490	792	72879834
-509	129	4063	-851	-843	-9073	-17	7	141	795	60543	793	72879834
-507	139	4068	-852	-844	-9066	-17	7	141	796	60644	794	72879836
-489	124	4064	-852	-841	-9076	-9	9	143	797	60696	795	72879838
-499	134	4072	-851	-839	-9078	-9	9	143	798	60796	796	72879838
-505	123	4072	-850	-842	-9053	-4	14	146	799	60849	797	72879873
-497	130	4057	-851	-838	-9084	-4	14	146	800	60949	798	72879873
-504	143	4059	-847	-835	-9090	-13	11	151	801	61002	799	72879876
-512	152	4082	-848	-842	-9060	-13	11	151	802	61103	800	72879878
-518	130	4051	-852	-841	-9075	-4	18	134	803	61156	801	72879879
-507	120	4036	-850	-842	-9062	-4	18	134	804	61256	802	72879880
-485	119	4060	-850	-843	-9060	-2	20	132	805	61309	803	72879881
-500	133	4078	-853	-840	-9058	-2	20	132	806	61409	804	72879883
-493	115	4079	-851	-845	-9079	2	22	138	807	61462	805	72879884
-494	122	4058	-845	-842	-9071	2	22	138	808	61562	806	72879885
-510	128	4078	-850	-841	-9074	4	22	134	809	61615	807	72879924
-501	137	4041	-851	-847	-9054	4	22	134	810	61715	808	72879925
-476	145	4070	-848	-838	-9080	-2	20	140	811	61768	809	72879927
-494	134	4054	-852	-843	-9072	-2	20	140	812	61868	810	72879929
-481	125	4048	-854	-839	-9071	12	36	126	813	61921	811	72879930
-503	121	4059	-852	-843	-9060	12	36	126	814	62021	812	72879932
-483	118	4061	-850	-842	-9061	3	35	127	815	62074	813	72879932
-486	134	4065	-849	-838	-9091	3	35	127	816	62174	814	72879934
-499	123	4061	-848	-845	-9083	6	30	126	817	62227	815	72879935
-487	119	4060	-850	-843	-9058	6	30	126	818	62327	816	72879940
-488	142	4060	-851	-840	-9068	21	29	133	819	62380	817	72879971
-495	121	4037	-852	-846	-9052	21	29	133	820	62481	818	72879971
-489	120	4074	-851	-845	-9091	11	39	125	821	62534	819	72879974
-488	123	4044	-850	-834	-9092	11	39	125	822	62634	820	72879974
-466	130	4039	-849	-846	-9070	14	38	114	823	62687	821	72879977
-493	134	4053	-851	-845	-9077	14	38	114	824	62787	822	72879978
-493	139	4089	-850	-845	-9073	17	37	123	825	62840	823	72879978
-488	140	4057	-851	-841	-9055	17	37	123	826	62940	824	72879983
-491	116	4052	-852	-844	-9044	22	40	120	827	62993	825	72879983
-478	141	4062	-853	-844	-9070	22	40	120	828	63093	826	72879987
-489	135	4081	-851	-840	-9078	34	38	118	829	63146	827	72880024
-486	135	4047	-850	-844	-9071	34	38	118	830	63246	828	72880026
-496	136	4048	-847	-841	-9069	26	42	114	831	63299	829	72880031
-488	129	4057	-848	-839	-9067	26	42	114	832	63399	830	72880032
-476	142	4064	-850	-842	-9075	31	53	107	833	63452	831	72880033
-490	135	4048	-853	-845	-9075	31	53	107	834	63553	832	72880033
-494	131	4057	-852	-836	-9073	31	49	111	835	63605	833	72880034
-475	122	4072	-849	-838	-9081	31	49	111	836	63705	834	72880034
-483	115	4070	-852	-842	-9056	35	45	107	837	63758	835	72880035
-483	119	4071	-854	-840	-9058	35	45	107	838	63858	836	72880069
-463	112	4065	-850	-841	-9063	38	48	110	839	63911	837	72880070
-479	133	4059	-850	-838	-9069	38	48	110	840	64011	838	72880071
-496	134	4069	-849	-844	-9081	37	49	115	841	64064	839	72880072
-493	119	4068	-852	-843	-9091	37	49	115	842	64165	840	72880073
-475	145	4074	-846	-847	-9068	40	50	108	843	64217	841	72880075
-462	139	4040	-846	-849	-9058	40	50	108	844	64317	842	72880078
-490	129	4066	-854	-842	-9046	37	53	105	845	64370	843	72880079
-474	134	4055	-853	-843	-9061	37	53	105	846	64470	844	72880081
-462	138	4055	-848	-844	-9096	38	50	106	847	64523	845	72880081
-493	127	4034	-852	-839	-9066	38	50	106	848	64623	846	72880115
-478	124	4056	-853	-838	-9055	47	47	107	849	64676	847	72880115
-482	124	4054	-848	-839	-9072	47	47	107	850	64776	848	72880118
-486	139	4056	-852	-844	-9076	46	50	104	851	64829	849	72880119
-466	134	4045	-856	-842	-9056	46	50	104	852	64929	850	72880120
-469	116	4050	-852	-837	-9069	50	56	106	853	64982	851	72880123
-469	122	4055	-847	-847	-9079	50	56	106	854	65082	852	72880123
-467	124	4069	-848	-842	-9037	53	57	107	855	65135	853	72880126
-489	133	4039	-854	-841	-9056	53	57	107	856	65235	854	72880133
-456	144	4059	-849	-845	-9089	55	53	105	857	65288	855	72880134
-482	141	4043	-848	-842	-9063	55	53	105	858	65388	856	72880142
-483	139	4060	-853	-847	-9056	58	52	110	859	65441	857	72880143
-475	136	4082	-850	-846	-9069	58	52	110	860	65541	858	72880146
-477	130	4062	-850	-844	-9081	55	51	113	861	65594	859	72880179
-466	119	4062	-850	-845	-9066	55	51	113	862	65694	860	72880180
-459	120	4050	-852	-839	-9062	65	63	111	863	65747	861	72880183
-473	133	4037	-851	-843	-9083	65	63	111	864	65847	862	72880183
-473	148	4045	-851	-848	-9049	63	59	109	865	65900	863	72880187
-479	141	4068	-851	-842	-9049	63	59	109	866	66000	864	72880187
-467	134	4073	-846	-839	-9072	75	55	111	867	66053	865	72880187
-479	133	4072	-851	-848	-9085	75	55	111	868	66153	866	72880191
-471	138	4091	-849	-848	-9094	76	48	120	869	66206	867	72880191
-479	125	4051	-847	-844	-9071	76	48	120	870	66306	868	72880202
-471	147	4055	-848	-842	-9074	85	51	123	871	66359	869	72880202
-474	146	4053	-850	-846	-9084	85	51	123	872	66459	870	72880205
-458	147	4053	-854	-843	-9057	88	52	126	873	66512	871	72880238
-479	153	4053	-850	-842	-9080	88	52	126	874	66612	872	72880239
-462	145	4071	-852	-845	-9082	91	41	123	875	66665	873	72880242
-476	126	4067	-854	-844	-9072	91	41	123	876	66765	874	72880243
-479	132	4063	-852	-838	-9057	99	47	121	877	66818	875	72880244
-466	136	4065	-851	-842	-9064	99	47	121	878	66918	876	72880246
-478	143	4065	-850	-842	-9042	102	36	120	879	66971	877	72880246
-461	145	4051	-847	-844	-9055	102	36	120	880	67071	878	72880251
-464	149	4032	-848	-844	-9068	105	25	133	881	67124	879	72880251
-482	142	4062	-849	-848	-9078	105	25	133	882	67224	880	72880254
-453	145	4045	-850	-842	-9073	108	22	130	883	67277	881	72880293
-455	141	4045	-849	-843	-9064	108	22	130	884	67377	882	72880295
-481	143	4057	-850	-844	-9051	111	17	133	885	67430	883	72880296
-443	141	4074	-849	-843	-9064	111	17	133	886	67530	884	72880297
-486	140	4052	-850	-839	-9077	106	10	134	887	67583	885	72880301
-459	155	4023	-849	-844	-9057	106	10	134	888	67683	886	72880301
-482	157	4030	-848	-848	-9085	106	6	132	889	67736	887	72880302
-480	139	4041	-852	-842	-9057	106	6	132	890	67836	888	72880302
-469	132	4056	-850	-847	-9070	115	-7	135	891	67889	889	72880303
-484	144	4055	-850	-844	-9089	115	-7	135	892	67989	890	72880303
-472	150	4062	-849	-844	-9084	109	-15	139	893	68042	891	72880346
-463	140	4057	-848	-843	-9047	109	-15	139	894	68142	892	72880350
-476	173	4063	-843	-838	-9047	110	-12	136	895	68195	893	72880351
-459	145	4072	-852	-843	-9074	110	-12	136	896	68295	894	72880352
-492	141	4094	-846	-836	-9042	107	-21	133	897	68348	895	72880353
-454	170	4031	-849	-840	-9039	107	-21	133	898	68448	896	72880354
-466	167	4052	-851	-844	-9051	108	-18	142	899	68501	897	72880355
-491	144	4069	-851	-837	-9053	108	-18	142	900	68601	898	72880357
-457	148	4074	-852	-842	-9043	100	-34	136	901	68654	899	72880369
-456	157	4085	-848	-842	-9083	100	-34	136	902	68754	900	72880370
-465	143	4068	-852	-840	-9070	98	-32	142	903	68807	901	72880370
-437	143	4055	-852	-842	-9057	98	-32	142	904	68907	902	72880370
-471	160	4058	-844	-842	-9069	97	-37	143	905	68960	903	72880398
-460	143	4053	-851	-849	-9085	97	-37	143	906	69060	904	72880398
-486	139	4056	-859	-841	-9081	95	-43	143	907	69113	905	72880402
-487	154	4064	-843	-838	-9058	95	-43	143	908	69213	906	72880402
-472	166	4054	-849	-847	-9076	92	-42	142	909	69266	907	72880404
-470	168	4038	-852	-842	-9070	92	-42	142	910	69366	908	72880406
-486	181	4079	-851	-843	-9065	83	-47	137	911	69419	909	72880406
-470	162	4030	-845	-845	-9077	83	-47	137	912	69519	910	72880409
-473	155	4077	-851	-841	-9058	91	-55	145	913	69572	911	72880410
-483	148	4083	-855	-841	-9041	91	-55	145	914	69672	912	72880413
-471	150	4080	-853	-842	-9051	81	-51	141	915	69725	913	72880447
-474	182	4046	-846	-842	-9082	81	-51	141	916	69825	914	72880447
-469	165	4062	-852	-846	-9083	80	-58	144	917	69878	915	72880450
-486	162	4063	-853	-843	-9053	80	-58	144	918	69978	916	72880451
-476	162	4068	-847	-841	-9078	80	-60	146	919	70031	917	72880453
-479	151	4042	-853	-844	-9097	80	-60	146	920	70131	918	72880454
-476	167	4063	-851	-838	-9080	76	-62	144	921	70184	919	72880455
-462	154	4062	-850	-841	-9073	76	-62	144	922	70284	920	72880458
-468	172	4062	-851	-841	-9073	79	-61	147	923	70337	921	72880459
-487	147	4071	-851	-838	-9071	79	-61	147	924	70437	922	72880462
-494	164	4067	-851	-837	-9074	70	-60	154	925	70490	923	72880496
-476	158	4091	-851	-842	-9079	70	-60	154	926	70590	924	72880504
-480	169	4058	-854	-844	-9085	67	-69	151	927	70643	925	72880505
-494	180	4061	-849	-838	-9049	67	-69	151	928	70743	926	72880506
-463	152	4080	-850	-841	-9057	62	-68	148	929	70796	927	72880506
-488	153	4068	-853	-844	-9079	62	-68	148	930	70896	928	72880510
-482	166	4051	-850	-837	-9062	59	-67	145	931	70949	929	72880510
-468	180	4066	-849	-844	-9057	59	-67	145	932	71049	930	72880511
-476	165	4046	-852	-846	-9065	65	-73	159	933	71102	931	72880511
-484	163	4063	-855	-846	-9081	65	-73	159	934	71202	932	72880543
-478	166	4034	-851	-845	-9071	55	-75	153	935	71255	933	72880543
-488	169	4071	-853	-841	-9085	55	-75	153	936	71355	934	72880545
-469	160	4075	-852	-846	-9084	54	-78	160	937	71408	935	72880547
-488	162	4064	-854	-846	-9066	54	-78	160	938	71508	936	72880547
-483	161	4080	-850	-844	-9084	46	-72	150	939	71561	937	72880550
-506	154	4048	-851	-850	-9093	46	-72	150	940	71661	938	72880551
-486	168	4073	-854	-841	-9080	46	-78	152	941	71714	939	72880553
-488	174	4082	-850	-841	-9058	46	-78	152	942	71814	940	72880556
-476	178	4050	-852	-845	-9076	45	-81	151	943	71867	941	72880556
-481	166	4041	-848	-837	-9092	45	-81	151	944	71967	942	72880592
-483	168	4048	-850	-840	-9062	43	-79	161	945	72020	943	72880592
-493	166	4059	-854	-844	-9073	43	-79	161	946	72120	944	72880594
-479	173	4052	-853	-841	-9072	43	-81	155	947	72173	945	72880595
-490	169	4060	-853	-842	-9081	43	-81	155	948	72273	946	72880596
-493	179	4054	-854	-840	-9085	41	-77	153	949	72326	947	72880605
-474	178	4046	-855	-845	-9077	41	-77	153	950	72427	948	72880606
-476	161	4047	-854	-848	-9081	35	-81	151	951	72480	949	72880609
-487	169	4049	-851	-837	-9095	35	-81	151	952	72580	950	72880610
-492	158	4036	-851	-842	-9071	34	-82	154	953	72633	951	72880612
-479	156	4053	-848	-842	-9085	34	-82	154	954	72734	952	72880620
-496	158	4075	-850	-839	-9083	33	-83	161	955	72787	953	72880620
-480	164	4072	-854	-845	-9069	33	-83	161	956	72887	954	72880621
-497	171	4056	-853	-842	-9098	36	-86	160	957	72940	955	72880652
-493	181	4045	-855	-841	-9102	36	-86	160	958	73040	956	72880653
-485	175	4046	-851	-841	-9083	25	-83	157	959	73093	957	72880656
-515	172	4058	-850	-840	-9067	25	-83	157	960	73194	958	72880656
-485	162	4053	-851	-846	-9060	21	-85	153	961	73246	959	72880660
-487	155	4097	-852	-841	-9062	21	-85	153	962	73347	960	72880661
-499	171	4063	-849	-840	-9075	24	-84	152	963	73400	961	72880662
-474	167	4052	-853	-845	-9055	24	-84	152	964	73501	962	72880664
-510	173	4091	-852	-841	-9097	19	-87	157	965	73553	963	72880665
-505	191	4053	-851	-843	-9093	19	-87	157	966	73653	964	72880699
-495	177	4051	-851	-842	-9073	25	-81	153	967	73706	965	72880700
-502	169	4062	-852	-842	-9048	25	-81	153	968	73806	966	72880702
-494	165	4064	-854	-841	-9083	14	-82	148	969	73859	967	72880703
-500	149	4052	-852	-843	-9072	14	-82	148	970	73959	968	72880714
-498	168	4063	-850	-843	-9074	9	-81	149	971	74012	969	72880715
-507	176	4056	-852	-841	-9094	9	-81	149	972	74112	970	72880716
-512	162	4058	-850	-836	-9105	8	-78	148	973	74165	971	72880717
-513	166	4074	-849	-839	-9092	8	-78	148	974	74265	972	72880718
-490	158	4069	-852	-838	-9065	6	-88	152	975	74318	973	72880719
-488	154	4065	-851	-844	-9082	6	-88	152	976	74418	974	72880752
-502	166	4049	-854	-846	-9069	3	-87	157	977	74471	975	72880753
-517	183	4065	-855	-844	-9068	3	-87	157	978	74571	976	72880754
-499	167	4049	-852	-844	-9082	1	-87	151	979	74624	977	72880755
-508	174	4041	-848	-844	-9075	1	-87	151	980	74724	978	72880762
-528	163	4059	-854	-846	-9062	-4	-82	146	981	74777	979	72880763
-500	163	4055	-853	-847	-9092	-4	-82	146	982	74877	980	72880764
-503	171	4045	-855	-837	-9088	-5	-83	143	983	74930	981	72880764
-519	168	4053	-859	-844	-9083	-5	-83	143	984	75030	982	72880765
-495	165	4061	-854	-849	-9087	-12	-78	142	985	75083	983	72880765
-525	152	4072	-848	-845	-9078	-12	-78	142	986	75183	984	72880798
-502	171	4076	-853	-843	-9075	-9	-79	153	987	75236	985	72880798
-490	184	4050	-851	-847	-9078	-9	-79	153	988	75336	986	72880801
-519	161	4033	-850	-843	-9080	-14	-80	144	989	75389	987	72880802
-490	158	4039	-851	-841	-9055	-14	-80	144	990	75489	988	72880802
-511	170	4070	-851	-844	-9077	-21	-73	141	991	75542	989	72880805
-514	147	4069	-854	-844	-9091	-21	-73	141	992	75642	990	72880806
-499	144	4066	-853	-845	-9083	-22	-70	138	993	75695	991	72880809
-513	163	4042	-847	-843	-9081	-22	-70	138	994	75795	992	72880810
-510	160	4067	-853	-839	-9072	-21	-75	141	995	75848	993	72880813
-499	171	4051	-856	-842	-9094	-21	-75	141	996	75948	994	72880846
-517	160	4054	-852	-844	-9074	-26	-72	150	997	76001	995	72880846
-512	177	4085	-854	-844	-9083	-26	-72	150	998	76101	996	72880849
-515	148	4064	-856	-840	-9066	-28	-66	136	999	76154	997	72880850
-503	151	4073	-854	-848	-9100	-28	-66	136	1000	76254	998	72880852
-482	163	4092	-848	-846	-9092	-38	-64	144	1001	76307	999	72880853
-518	165	4062	-850	-846	-9069	-38	-64	144	1002	76407	1000	72880853
-520	152	4070	-853	-846	-9080	-40	-66	136	1003	76460	1001	72880860
-517	171	4070	-849	-843	-9082	-40	-66	136	1004	76560	1002	72880861
-510	170	4047	-850	-842	-9073	-43	-65	143	1005	76613	1003	72880863
-494	155	4054	-859	-842	-9055	-43	-65	143	1006	76713	1004	72880896
-497	147	4063	-853	-836	-9081	-46	-56	148	1007	76766	1005	72880902
-514	155	4067	-846	-845	-9091	-46	-56	148	1008	76866	1006	72880903
-515	147	4059	-851	-844	-9073	-45	-59	139	1009	76919	1007	72880904
-496	157	4063	-851	-840	-9083	-45	-59	139	1010	77019	1008	72880906
-491	159	4052	-849	-843	-9041	-51	-49	139	1011	77072	1009	72880909
-545	169	4062	-847	-840	-9059	-51	-49	139	1012	77172	1010	72880910
-516	149	4042	-852	-841	-9072	-52	-50	148	1013	77225	1011	72880911
-488	144	4039	-852	-844	-9068	-52	-50	148	1014	77325	1012	72880911
-511	165	4097	-848	-840	-9059	-59	-39	147	1015	77378	1013	72880943
-510	144	4059	-852	-848	-9053	-59	-39	147	1016	77478	1014	72880944
-506	136	4059	-854	-841	-9045	-54	-42	150	1017	77531	1015	72880946
-509	142	4085	-848	-843	-9063	-54	-42	150	1018	77631	1016	72880955
-510	158	4055	-847	-846	-9061	-62	-48	152	1019	77684	1017	72880961
-526	150	4038	-852	-838	-9082	-62	-48	152	1020	77784	1018	72880961
-516	155	4067	-850	-843	-9073	-65	-29	149	1021	77837	1019	72880962
-505	141	4055	-850	-849	-9073	-65	-29	149	1022	77937	1020	72880962
-514	144	4080	-858	-841	-9074	-52	-40	160	1023	77990	1021	72880963
-509	134	4061	-855	-840	-9061	-52	-40	160	1024	78090	1022	72880963
-503	152	4097	-844	-841	-9084	-54	-28	166	1025	78143	1023	72880987
-510	154	4039	-847	-842	-9058	-54	-28	166	1026	78243	1024	72880987
-503	126	4060	-851	-846	-9074	-61	-29	161	1027	78296	1025	72880989
-519	147	4063	-845	-842	-9095	-61	-29	161	1028	78396	1026	72880990
-508	161	4048	-847	-843	-9078	-48	-22	162	1029	78449	1027	72880991
-508	149	4080	-856	-841	-9084	-48	-22	162	1030	78549	1028	72880994
-508	146	4092	-853	-841	-9077	-57	-7	159	1031	78602	1029	72880994
-512	144	4044	-845	-848	-9068	-57	-7	159	1032	78702	1030	72880996
-517	149	4056	-849	-843	-9069	-44	-30	172	1033	78755	1031	72881031
-510	147	4073	-856	-841	-9077	-44	-30	172	1034	78855	1032	72881032
-520	141	4053	-850	-841	-9082	-45	-3	167	1035	78908	1033	72881034
-506	152	4075	-848	-842	-9062	-45	-3	167	1036	79008	1034	72881035
-504	129	4064	-853	-841	-9074	-42	-18	164	1037	79061	1035	72881039
-511	129	4062	-853	-840	-9058	-42	-18	164	1038	79161	1036	72881039
-494	136	4064	-846	-841	-9055	-28	-2	168	1039	79214	1037	72881039
-493	141	4075	-850	-841	-9065	-28	-2	168	1040	79314	1038	72881042
-518	123	4058	-851	-838	-9067	-39	-7	157	1041	79367	1039	72881042
-505	149	4067	-849	-843	-9074	-39	-7	157	1042	79467	1040	72881053
-530	150	4058	-851	-846	-9054	-30	-14	172	1043	79520	1041	72881054
-517	135	4079	-854	-845	-9051	-30	-14	172	1044	79620	1042	72881054
-503	137	4056	-855	-845	-9077	-21	9	159	1045	79673	1043	72881091
-518	139	4063	-847	-842	-9056	-21	9	159	1046	79773	1044	72881091
-496	144	4058	-851	-848	-9057	-26	-12	166	1047	79826	1045	72881093
-501	137	4069	-852	-839	-9057	-26	-12	166	1048	79926	1046	72881093
-504	124	4061	-843	-841	-9071	-15	7	155	1049	79979	1047	72881095
-504	142	4075	-848	-842	-9064	-15	7	155	1050	80080	1048	72881098
-503	139	4065	-853	-837	-9046	-24	0	146	1051	80133	1049	72881099
-501	133	4074	-849	-840	-9067	-24	0	146	1052	80233	1050	72881100
-486	135	4064	-849	-842	-9066	-15	1	155	1053	80286	1051	72881100
-498	124	4053	-856	-842	-9067	-15	1	155	1054	80386	1052	72881106
-502	127	4036	-855	-844	-9069	-13	9	145	1055	80439	1053	72881139
-515	130	4064	-848	-843	-9087	-13	9	145	1056	80539	1054	72881140
-496	147	4059	-850	-840	-9063	-16	-4	154	1057	80592	1055	72881143
-513	139	4088	-851	-839	-9067	-16	-4	154	1058	80692	1056	72881143
-511	148	4070	-849	-840	-9079	-12	16	142	1059	80745	1057	72881146
-482	130	4066	-850	-844	-9072	-12	16	142	1060	80845	1058	72881147
-497	130	4063	-854	-841	-9038	-6	12	140	1061	80898	1059	72881147
-501	125	4071	-854	-842	-9052	-6	12	140	1062	80998	1060	72881150
-502	113	4066	-849	-849	-9050	-13	17	137	1063	81051	1061	72881151
-505	127	4057	-847	-839	-9068	-13	17	137	1064	81151	1062	72881185
-497	139	4067	-853	-841	-9056	-2	22	138	1065	81204	1063	72881186
-495	137	4064	-848	-845	-9090	-2	22	138	1066	81304	1064	72881188
-511	143	4078	-845	-840	-9068	-6	18	142	1067	81357	1065	72881189
-492	128	4057	-851	-844	-9058	-6	18	142	1068	81457	1066	72881190
-489	123	4063	-854	-844	-9057	6	24	126	1069	81510	1067	72881193
-502	131	4089	-848	-841	-9094	6	24	126	1070	81610	1068	72881193
-495	142	4067	-851	-839	-9046	-3	27	133	1071	81663	1069	72881195
-503	136	4065	-850	-834	-9063	-3	27	133	1072	81763	1070	72881200
-498	123	4081	-847	-844	-9076	1	25	137	1073	81816	1071	72881201
-469	143	4054	-849	-842	-9074	1	25	137	1074	81916	1072	72881235
-488	136	4039	-850	-834	-9069	10	28	138	1075	81969	1073	72881236
-482	126	4066	-852	-843	-9063	10	28	138	1076	82069	1074	72881240
-500	115	4088	-851	-842	-9074	9	27	133	1077	82122	1075	72881240
-497	121	4042	-849	-842	-9043	9	27	133	1078	82222	1076	72881240
-485	122	4054	-852	-848	-9064	13	39	117	1079	82275	1077	72881243
-499	121	4048	-848	-846	-9070	13	39	117	1080	82375	1078	72881243
-485	135	4037	-846	-843	-9056	8	34	128	1081	82428	1079	72881245
-495	140	4047	-850	-842	-9057	8	34	128	1082	82528	1080	72881248
-501	129	4046	-851	-846	-9063	13	33	121	1083	82581	1081	72881248
-477	128	4051	-850	-847	-9097	13	33	121	1084	82681	1082	72881283
-474	129	4076	-853	-837	-9078	23	37	127	1085	82734	1083	72881284
-480	128	4050	-852	-835	-9083	23	37	127	1086	82834	1084	72881286
-498	118	4083	-850	-845	-9065	19	39	117	1087	82887	1085	72881287
-484	122	4075	-850	-840	-9062	19	39	117	1088	82987	1086	72881291
-478	127	4043	-854	-842	-9075	25	41	113	1089	83040	1087	72881292
-493	134	4075	-854	-841	-9041	25	41	113	1090	83140	1088	72881293
-489	127	4062	-849	-846	-9085	26	44	122	1091	83193	1089	72881294
-489	105	4031	-852	-847	-9058	26	44	122	1092	83293	1090	72881296
-487	125	4053	-854	-844	-9058	28	46	114	1093	83346	1091	72881300
-468	127	4052	-849	-846	-9080	28	46	114	1094	83447	1092	72881332
-490	134	4080	-849	-840	-9073	34	42	112	1095	83499	1093	72881332
-488	123	4078	-847	-837	-9069	34	42	112	1096	83599	1094	72881335
-481	135	4025	-850	-848	-9079	24	48	110	1097	83652	1095	72881335
-486	139	4066	-851	-843	-9067	24	48	110	1098	83752	1096	72881338
-483	139	4051	-849	-840	-9049	33	45	107	1099	83805	1097	72881339
-485	117	4049	-854	-839	-9092	33	45	107	1100	83905	1098	72881340
-498	126	4036	-848	-838	-9063	32	48	106	1101	83958	1099	72881344
-461	129	4049	-846	-841	-9050	32	48	106	1102	84058	1100	72881345
-479	128	4061	-849	-838	-9058	37	47	107	1103	84111	1101	72881349
-478	125	4063	-851	-842	-9059	37	47	107	1104	84211	1102	72881381
-486	144	4054	-849	-844	-9072	37	43	111	1105	84264	1103	72881382
-484	125	4030	-849	-840	-9060	37	43	111	1106	84364	1104	72881384
-484	120	4060	-855	-841	-9069	39	51	105	1107	84417	1105	72881385
-460	127	4054	-851	-843	-9085	39	51	105	1108	84517	1106	72881386
-488	131	4048	-848	-839	-9077	41	53	97	1109	84570	1107	72881388
-470	139	4044	-853	-841	-9060	41	53	97	1110	84670	1108	72881389
-493	129	4103	-849	-843	-9073	44	60	104	1111	84723	1109	72881393
-487	129	4050	-849	-843	-9074	44	60	104	1112	84823	1110	72881394
-495	128	4060	-857	-845	-9061	40	54	106	1113	84876	1111	72881397
-483	131	4075	-850	-845	-9066	40	54	106	1114	84976	1112	72881430
-483	134	4046	-847	-848	-9085	48	56	116	1115	85029	1113	72881432
-482	125	4089	-853	-841	-9064	48	56	116	1116	85129	1114	72881433
-470	124	4075	-853	-837	-9060	53	61	107	1117	85182	1115	72881434
-472	146	4064	-844	-846	-9091	53	61	107	1118	85283	1116	72881435
-485	137	4053	-846	-843	-9077	53	55	101	1119	85335	1117	72881439
-468	138	4057	-852	-842	-9080	53	55	101	1120	85435	1118	72881439
-462	153	4086	-851	-848	-9064	58	58	104	1121	85488	1119	72881441
-462	143	4061	-849	-841	-9082	58	58	104	1122	85588	1120	72881442
-473	153	4081	-852	-844	-9049	58	52	108	1123	85641	1121	72881480
-482	118	4065	-855	-844	-9051	58	52	108	1124	85741	1122	72881481
-474	130	4039	-848	-846	-9059	71	55	119	1125	85794	1123	72881481
-479	131	4081	-848	-842	-9068	71	55	119	1126	85894	1124	72881482
-482	140	4080	-852	-837	-9051	72	54	110	1127	85947	1125	72881483
-487	158	4060	-848	-844	-9064	72	54	110	1128	86047	1126	72881484
-454	142	4069	-849	-846	-9071	76	54	114	1129	86100	1127	72881484
-490	148	4053	-851	-842	-9063	76	54	114	1130	86200	1128	72881486
-487	127	4069	-854	-843	-9059	80	52	120	1131	86253	1129	72881493
-481	142	4064	-846	-841	-9077	80	52	120	1132	86353	1130	72881494
-454	153	4053	-850	-842	-9071	88	50	120	1133	86406	1131	72881503
-480	145	4060	-858	-838	-9044	88	50	120	1134	86506	1132	72881503
-477	149	4078	-847	-839	-9073	86	44	122	1135	86559	1133	72881506
-468	143	4058	-846	-844	-9073	86	44	122	1136	86659	1134	72881517
-472	142	4057	-854	-838	-9082	97	41	125	1137	86712	1135	72881517
-465	136	4055	-854	-840	-9060	97	41	125	1138	86812	1136	72881552
-465	163	4071	-849	-846	-9061	104	40	136	1139	86865	1137	72881553
-483	151	4064	-850	-834	-9074	104	40	136	1140	86965	1138	72881554
-472	128	4042	-856	-843	-9076	100	30	132	1141	87018	1139	72881556
-480	138	4063	-846	-843	-9065	100	30	132	1142	87118	1140	72881557
-477	174	4034	-840	-839	-9068	106	26	126	1143	87171	1141	72881562
-473	141	4075	-854	-843	-9063	106	26	126	1144	87271	1142	72881562
-463	137	4068	-853	-840	-9039	111	21	127	1145	87324	1143	72881563
-460	151	4073	-841	-841	-9055	111	21	127	1146	87424	1144	72881565
-458	157	4064	-854	-843	-9060	106	10	132	1147	87477	1145	72881565
-463	120	4058	-862	-838	-9052	106	10	132	1148	87577	1146	72881599
-461	155	4073	-849	-845	-9054	117	1	139	1149	87630	1147	72881600
-467	161	4040	-847	-848	-9076	117	1	139	1150	87730	1148	72881602
-481	151	4049	-855	-839	-9104	107	3	137	1151	87783	1149	72881629
-466	149	4078	-856	-843	-9080	107	3	137	1152	87883	1150	72881630
-446	168	4027	-844	-839	-9070	109	-9	135	1153	87936	1151	72881632
-449	155	4035	-848	-843	-9051	109	-9	135	1154	88036	1152	72881632
-482	150	4085	-855	-842	-9039	104	-10	134	1155	88089	1153	72881636
-468	156	4053	-845	-838	-9076	104	-10	134	1156	88189	1154	72881636
-460	173	4057	-849	-843	-9075	110	-14	134	1157	88242	1155	72881639
-467	158	4047	-860	-843	-9083	110	-14	134	1158	88342	1156	72881640
-475	146	4058	-853	-844	-9074	107	-23	135	1159	88395	1157	72881641
-481	163	4052	-846	-840	-9066	107	-23	135	1160	88495	1158	72881643
-478	156	4071	-851	-834	-9085	99	-27	137	1161	88548	1159	72881644
-458	141	4023	-854	-846	-9071	99	-27	137	1162	88648	1160	72881646
-491	143	4070	-848	-842	-9086	102	-34	136	1163	88701	1161	72881651
-485	145	4061	-845	-844	-9053	102	-34	136	1164	88801	1162	72881652
-463	142	4042	-853	-841	-9078	102	-40	142	1165	88854	1163	72881662
-481	157	4072	-849	-836	-9088	102	-40	142	1166	88954	1164	72881663
-458	164	4056	-846	-843	-9086	100	-42	142	1167	89007	1165	72881664
-464	166	4027	-855	-839	-9071	100	-42	142	1168	89107	1166	72881704
-469	136	4055	-850	-838	-9046	93	-43	137	1169	89160	1167	72881704
-464	162	4050	-849	-845	-9038	93	-43	137	1170	89260	1168	72881704
-460	157	4065	-853	-839	-9031	89	-49	143	1171	89313	1169	72881705
-461	152	4084	-852	-841	-9059	89	-49	143	1172	89413	1170	72881705
-467	156	4064	-847	-844	-9047	85	-47	143	1173	89466	1171	72881705
-470	171	4063	-848	-841	-9062	85	-47	143	1174	89566	1172	72881705
-481	152	4074	-853	-845	-9069	77	-49	145	1175	89619	1173	72881709
-482	131	4068	-849	-840	-9081	77	-49	145	1176	89719	1174	72881710
-466	170	4064	-842	-843	-9078	81	-55	143	1177	89772	1175	72881713
-465	141	4066	-851	-840	-9070	81	-55	143	1178	89872	1176	72881746
-474	152	4075	-853	-837	-9073	77	-51	147	1179	89925	1177	72881746
-472	177	4035	-842	-845	-9054	77	-51	147	1180	90025	1178	72881749
-481	181	4049	-849	-843	-9057	80	-60	144	1181	90078	1179	72881750
-485	165	4063	-858	-844	-9058	80	-60	144	1182	90178	1180	72881752
-475	158	4024	-849	-842	-9064	73	-63	149	1183	90231	1181	72881753
-488	168	4058	-848	-835	-9061	73	-63	149	1184	90331	1182	72881754
-474	165	4049	-855	-839	-9068	71	-71	145	1185	90384	1183	72881761
-466	146	4069	-854	-842	-9057	71	-71	145	1186	90484	1184	72881761
-484	172	4045	-846	-841	-9063	65	-67	153	1187	90537	1185	72881771
-457	178	4074	-849	-846	-9066	65	-67	153	1188	90637	1186	72881771
-492	156	4067	-850	-838	-9067	62	-64	148	1189	90690	1187	72881774
-479	174	4075	-851	-840	-9057	62	-64	148	1190	90790	1188	72881808
-468	152	4052	-850	-838	-9062	62	-68	148	1191	90843	1189	72881809
-504	151	4037	-853	-836	-9088	62	-68	148	1192	90943	1190	72881812
-492	141	4068	-854	-844	-9057	64	-72	154	1193	90996	1191	72881812
-489	142	4059	-852	-842	-9078	64	-72	154	1194	91096	1192	72881814
-493	177	4046	-848	-838	-9072	58	-72	150	1195	91149	1193	72881816
-475	153	4075	-852	-847	-9076	58	-72	150	1196	91250	1194	72881816
-498	176	4072	-851	-843	-9058	54	-74	150	1197	91302	1195	72881819
-476	165	4053	-850	-845	-9074	54	-74	150	1198	91402	1196	72881820
-476	152	4072	-853	-846	-9086	54	-76	154	1199	91455	1197	72881823
-478	164	4053	-848	-845	-9077	54	-76	154	1200	91555	1198	72881860
-467	169	4070	-848	-847	-9057	52	-74	158	1201	91608	1199	72881861
-472	162	4055	-852	-843	-9054	52	-74	158	1202	91708	1200	72881862
-489	168	4074	-851	-843	-9066	48	-74	152	1203	91761	1201	72881863
-483	175	4050	-851	-846	-9085	48	-74	152	1204	91861	1202	72881864
-499	177	4062	-850	-845	-9087	46	-76	154	1205	91914	1203	72881865
-473	161	4075	-851	-841	-9107	46	-76	154	1206	92014	1204	72881866
-510	185	4077	-853	-841	-9085	41	-75	151	1207	92067	1205	72881868
-477	173	4045	-849	-841	-9066	41	-75	151	1208	92167	1206	72881869
-469	169	4049	-849	-846	-9085	42	-84	154	1209	92220	1207	72881872
-486	163	4062	-850	-842	-9089	42	-84	154	1210	92320	1208	72881905
-490	171	4063	-846	-844	-9056	40	-84	150	1211	92373	1209	72881906
-493	179	4080	-847	-842	-9071	40	-84	150	1212	92473	1210	72881909
-506	187	4074	-854	-840	-9061	33	-85	155	1213	92526	1211	72881909
-483	186	4053	-852	-848	-9093	33	-85	155	1214	92626	1212	72881911
-459	180	4047	-849	-844	-9080	33	-83	151	1215	92679	1213	72881913
-496	180	4073	-855	-841	-9081	33	-83	151	1216	92779	1214	72881913
-481	147	4051	-859	-847	-9082	31	-83	147	1217	92832	1215	72881916
-512	155	4062	-851	-842	-9071	31	-83	147	1218	92932	1216	72881917
-483	179	4075	-848	-840	-9079	25	-91	161	1219	92985	1217	72881953
-484	167	4042	-851	-842	-9088	25	-91	161	1220	93085	1218	72881953
-497	170	4069	-853	-839	-9106	31	-83	153	1221	93138	1219	72881955
-496	172	4052	-853	-844	-9064	31	-83	153	1222	93238	1220	72881961
-506	181	4054	-850	-843	-9098	20	-84	152	1223	93291	1221	72881962
-493	158	4056	-854	-845	-9090	20	-84	152	1224	93391	1222	72881964
-475	159	4073	-853	-847	-9075	23	-83	151	1225	93444	1223	72881965
-495	170	4041	-851	-843	-9099	23	-83	151	1226	93544	1224	72881966
-506	159	4038	-854	-844	-9100	19	-85	147	1227	93597	1225	72881973
-505	180	4031	-850	-848	-9093	19	-85	147	1228	93697	1226	72881974
-491	189	4033	-846	-839	-9074	17	-87	151	1229	93750	1227	72881978
-492	182	4042	-852	-839	-9096	17	-87	151	1230	93850	1228	72881978
-504	164	4037	-857	-836	-9079	12	-82	150	1231	93903	1229	72881980
-486	144	4072	-855	-839	-9081	12	-82	150	1232	94003	1230	72882013
-480	157	4063	-848	-840	-9099	10	-82	150	1233	94056	1231	72882014
-516	167	4051	-850	-844	-9101	10	-82	150	1234	94156	1232	72882016
-503	154	4046	-851	-847	-9072	7	-81	149	1235	94209	1233	72882017
-506	181	4057	-849	-843	-9082	7	-81	149	1236	94309	1234	72882021
-508	166	4051	-851	-845	-9072	-1	-81	145	1237	94362	1235	72882021
-500	170	4056	-853	-846	-9072	-1	-81	145	1238	94462	1236	72882022
-507	152	4078	-855	-840	-9073	-3	-83	145	1239	94515	1237	72882026
-471	178	4080	-850	-846	-9089	-3	-83	145	1240	94615	1238	72882026
-497	148	4078	-848	-850	-9107	4	-82	146	1241	94668	1239	72882030
-513	177	4040	-850	-845	-9085	4	-82	146	1242	94768	1240	72882061
-506	171	4053	-850	-843	-9066	-3	-83	149	1243	94821	1241	72882061
-515	166	4053	-855	-842	-9087	-3	-83	149	1244	94921	1242	72882064
-511	171	4049	-853	-844	-9108	-4	-80	148	1245	94974	1243	72882065
-484	180	4039	-850	-842	-9074	-4	-80	148	1246	95075	1244	72882068
-514	172	4067	-859	-840	-9069	-10	-78	146	1247	95127	1245	72882068
-504	146	4049	-857	-848	-9087	-10	-78	146	1248	95227	1246	72882070
-505	148	4079	-850	-845	-9089	-14	-76	142	1249	95280	1247	72882077
-503	173	4064	-843	-842	-9056	-14	-76	142	1250	95380	1248	72882079
-491	168	4055	-852	-845	-9072	-8	-76	146	1251	95433	1249	72882086
-517	163	4068	-855	-850	-9099	-8	-76	146	1252	95533	1250	72882092
-503	167	4050	-848	-847	-9082	-25	-73	143	1253	95586	1251	72882092
-503	177	4032	-850	-843	-9064	-25	-73	143	1254	95686	1252	72882100
-494	155	4055	-857	-848	-9083	-24	-78	138	1255	95739	1253	72882101
-503	155	4053	-855	-841	-9082	-24	-78	138	1256	95840	1254	72882135
-508	146	4067	-850	-843	-9060	-27	-75	141	1257	95892	1255	72882136
-518	153	4062	-853	-847	-9101	-27	-75	141	1258	95992	1256	72882138
-497	166	4055	-851	-845	-9098	-33	-69	147	1259	96045	1257	72882139
-509	173	4026	-849	-839	-9064	-33	-69	147	1260	96145	1258	72882140
-501	164	4052	-851	-841	-9093	-35	-65	133	1261	96198	1259	72882143
-509	169	4042	-855	-846	-9077	-35	-65	133	1262	96298	1260	72882143
-512	176	4074	-851	-844	-9066	-43	-61	133	1263	96351	1261	72882145
-480	149	4064	-847	-844	-9066	-43	-61	133	1264	96451	1262	72882150
-526	145	4076	-853	-843	-9084	-41	-67	141	1265	96504	1263	72882151
-503	143	4064	-851	-848	-9091	-41	-67	141	1266	96604	1264	72882186
-503	176	4052	-847	-848	-9073	-44	-62	148	1267	96657	1265	72882186
-532	175	4043	-849	-843	-9071	-44	-62	148	1268	96757	1266	72882189
-511	159	4066	-857	-844	-9078	-41	-61	139	1269	96810	1267	72882190
-504	155	4072	-852	-835	-9080	-41	-61	139	1270	96910	1268	72882191
-509	161	4080	-851	-838	-9085	-54	-46	138	1271	96963	1269	72882193
-513	159	4063	-858	-841	-9080	-54	-46	138	1272	97063	1270	72882194
-512	145	4056	-846	-841	-9074	-54	-52	138	1273	97116	1271	72882197
-511	156	4076	-845	-839	-9068	-54	-52	138	1274	97216	1272	72882198
-498	176	4078	-850	-845	-9064	-51	-47	141	1275	97269	1273	72882199
-521	168	4079	-852	-840	-9092	-51	-47	141	1276	97369	1274	72882232
-519	154	4082	-849	-842	-9076	-58	-36	148	1277	97422	1275	72882232
-506	155	4057	-850	-843	-9051	-58	-36	148	1278	97522	1276	72882236
-503	145	4058	-854	-846	-9097	-53	-43	155	1279	97575	1277	72882236
-499	157	4053	-850	-843	-9072	-53	-43	155	1280	97675	1278	72882239
-518	159	4061	-842	-838	-9046	-65	-33	149	1281	97728	1279	72882240
-506	163	4052	-851	-842	-9060	-65	-33	149	1282	97828	1280	72882240
-514	148	4071	-853	-838	-9072	-65	-33	155	1283	97881	1281	72882268
-507	143	4061	-849	-837	-9064	-65	-33	155	1284	97982	1282	72882269
-504	149	4070	-851	-840	-9073	-63	-33	163	1285	98034	1283	72882270
-524	134	4068	-853	-836	-9071	-63	-33	163	1286	98134	1284	72882272
-503	131	4016	-848	-838	-9082	-61	-15	161	1287	98187	1285	72882276
-509	152	4050	-849	-840	-9059	-61	-15	161	1288	98287	1286	72882277
-529	154	4065	-850	-845	-9061	-53	-27	165	1289	98340	1287	72882278
-499	151	4062	-850	-843	-9101	-53	-27	165	1290	98440	1288	72882280
-512	149	4070	-850	-840	-9054	-58	-8	158	1291	98493	1289	72882284
-498	148	4050	-854	-851	-9063	-58	-8	158	1292	98593	1290	72882285
-504	139	4063	-852	-849	-9052	-56	-28	172	1293	98646	1291	72882294
-520	152	4053	-852	-841	-9063	-56	-28	172	1294	98746	1292	72882295
-492	146	4074	-849	-848	-9069	-42	-14	168	1295	98799	1293	72882300
-502	148	4066	-851	-850	-9060	-42	-14	168	1296	98899	1294	72882331
-510	141	4058	-849	-843	-9093	-42	-14	166	1297	98952	1295	72882331
-505	146	4064	-847	-841	-9085	-42	-14	166	1298	99052	1296	72882334
-524	153	4074	-849	-841	-9081	-33	-23	179	1299	99105	1297	72882334
-506	145	4053	-852	-843	-9073	-33	-23	179	1300	99205	1298	72882337
-500	137	4076	-850	-842	-9076	-30	-2	164	1301	99258	1299	72882338
-517	141	4083	-846	-841	-9058	-30	-2	164	1302	99358	1300	72882339
-498	133	4068	-847	-847	-9063	-31	-17	163	1303	99411	1301	72882343
-515	135	4081	-849	-841	-9096	-31	-17	163	1304	99511	1302	72882344
-499	142	4063	-846	-843	-9084	-22	2	166	1305	99564	1303	72882379
-503	148	4049	-850	-845	-9073	-22	2	166	1306	99664	1304	72882380
-509	130	4075	-853	-839	-9062	-26	-8	158	1307	99717	1305	72882380
-494	153	4053	-852	-843	-9067	-26	-8	158	1308	99817	1306	72882382
-503	124	4068	-852	-844	-9066	-17	-1	159	1309	99870	1307	72882383
-479	120	4061	-855	-846	-9048	-17	-1	159	1310	99970	1308	72882385
-499	120	4067	-854	-846	-9083	-10	10	146	1311	100023	1309	72882386
-514	141	4060	-846	-841	-9078	-10	10	146	1312	100123	1310	72882388
-508	138	4054	-853	-846	-9077	-27	-5	151	1313	100176	1311	72882393
-512	134	4077	-850	-843	-9082	-27	-5	151	1314	100276	1312	72882393
-525	139	4075	-846	-840	-9069	-9	11	149	1315	100329	1313	72882430
-489	152	4049	-846	-846	-9044	-9	11	149	1316	100429	1314	72882431
-497	115	4056	-849	-845	-9068	-15	7	147	1317	100482	1315	72882432
-499	140	4069	-848	-839	-9086	-15	7	147	1318	100582	1316	72882433
-498	137	4073	-846	-846	-9053	-12	12	146	1319	100635	1317	72882434
-513	140	4067	-849	-840	-9064	-12	12	146	1320	100736	1318	72882435
-510	123	4059	-851	-845	-9075	-5	21	141	1321	100788	1319	72882436
-507	129	4066	-851	-840	-9067	-5	21	141	1322	100888	1320	72882441
-490	125	4082	-854	-843	-9044	-11	13	149	1323	100941	1321	72882442
-474	122	4045	-857	-842	-9082	-11	13	149	1324	101041	1322	72882442
-494	124	4088	-855	-841	-9069	2	24	140	1325	101094	1323	72882475
-475	127	4053	-850	-847	-9062	2	24	140	1326	101194	1324	72882476
-490	135	4078	-849	-843	-9082	-3	19	145	1327	101247	1325	72882478
-510	130	4083	-847	-839	-9083	-3	19	145	1328	101347	1326	72882479
-490	129	4072	-847	-844	-9075	-5	23	135	1329	101400	1327	72882480
-506	156	4079	-846	-844	-9067	-5	23	135	1330	101500	1328	72882483
-495	135	4051	-854	-845	-9073	2	26	130	1331	101553	1329	72882484
-479	139	4050	-859	-843	-9093	2	26	130	1332	101653	1330	72882486
-507	121	4052	-855	-843	-9060	-1	21	131	1333	101706	1331	72882495
-486	130	4065	-853	-847	-9065	-1	21	131	1334	101806	1332	72882496
-497	138	4050	-847	-843	-9060	6	34	128	1335	101859	1333	72882502
-509	134	4060	-848	-837	-9052	6	34	128	1336	101959	1334	72882502
-485	133	4074	-848	-842	-9059	6	34	134	1337	102012	1335	72882513
-491	129	4077	-852	-838	-9076	6	34	134	1338	102112	1336	72882513
-487	135	4101	-853	-844	-9082	10	34	132	1339	102165	1337	72882515
-495	139	4014	-850	-842	-9066	10	34	132	1340	102265	1338	72882549
-507	124	4050	-848	-846	-9057	15	33	129	1341	102318	1339	72882550
-492	135	4054	-849	-844	-9061	15	33	129	1342	102418	1340	72882552
-481	137	4075	-850	-840	-9054	16	32	122	1343	102471	1341	72882553
-478	127	4062	-847	-842	-9059	16	32	122	1344	102571	1342	72882555
-510	142	4071	-849	-840	-9077	20	38	118	1345	102624	1343	72882556
-478	129	4057	-851	-842	-9061	20	38	118	1346	102724	1344	72882564
-487	127	4054	-852	-847	-9041	21	41	123	1347	102777	1345	72882568
-505	109	4068	-853	-844	-9048	21	41	123	1348	102877	1346	72882569
-477	137	4049	-855	-843	-9072	24	40	118	1349	102930	1347	72882570
-487	137	4051	-851	-842	-9071	24	40	118	1350	103031	1348	72882596
-497	127	4052	-849	-840	-9065	33	39	127	1351	103084	1349	72882597
-476	138	4039	-845	-845	-9065	33	39	127	1352	103184	1350	72882600
-482	131	4067	-850	-843	-9065	28	42	112	1353	103237	1351	72882601
-500	128	4069	-850	-844	-9068	28	42	112	1354	103338	1352	72882603
-481	127	4067	-849	-843	-9085	30	48	112	1355	103391	1353	72882604
-486	130	4050	-854	-840	-9078	30	48	112	1356	103491	1354	72882605
-488	136	4065	-851	-843	-9088	28	44	110	1357	103544	1355	72882609
-477	121	4065	-850	-843	-9052	28	44	110	1358	103644	1356	72882610
-493	141	4066	-850	-843	-9081	33	45	113	1359	103697	1357	72882612
-472	137	4037	-850	-841	-9074	33	45	113	1360	103797	1358	72882645
-483	124	4063	-849	-841	-9083	39	47	109	1361	103850	1359	72882653
-473	135	4093	-853	-843	-9064	39	47	109	1362	103950	1360	72882655
-479	128	4047	-852	-843	-9068	35	49	107	1363	104003	1361	72882656
-484	131	4030	-853	-840	-9071	35	49	107	1364	104103	1362	72882656
-475	133	4028	-848	-841	-9060	36	60	110	1365	104156	1363	72882659
-482	131	4071	-849	-841	-9064	36	60	110	1366	104257	1364	72882660
-485	121	4067	-848	-835	-9063	36	46	100	1367	104309	1365	72882660
-470	129	4050	-850	-844	-9071	36	46	100	1368	104409	1366	72882661
-492	135	4075	-851	-847	-9077	42	48	100	1369	104462	1367	72882670
-476	122	4043	-849	-847	-9081	42	48	100	1370	104562	1368	72882671
-477	115	4077	-853	-845	-9074	45	53	105	1371	104615	1369	72882674
-476	136	4058	-851	-845	-9068	45	53	105	1372	104715	1370	72882684
-473	126	4036	-848	-844	-9069	42	50	106	1373	104768	1371	72882685
-471	127	4065	-849	-839	-9066	42	50	106	1374	104869	1372	72882701
-474	141	4045	-851	-840	-9072	49	55	105	1375	104921	1373	72882704
-463	141	4048	-849	-846	-9063	49	55	105	1376	105021	1374	72882705
-475	130	4057	-846	-840	-9074	49	51	105	1377	105074	1375	72882709
-472	130	4057	-850	-843	-9078	49	51	105	1378	105175	1376	72882710
-469	123	4086	-854	-846	-9067	52	62	106	1379	105228	1377	72882744
-487	132	4070	-850	-838	-9067	52	62	106	1380	105328	1378	72882745
-466	138	4062	-846	-842	-9081	57	59	109	1381	105381	1379	72882747
-492	121	4080	-852	-842	-9063	57	59	109	1382	105481	1380	72882748
-472	139	4057	-847	-841	-9058	57	63	111	1383	105534	1381	72882749
-457	148	4043	-849	-843	-9068	57	63	111	1384	105634	1382	72882752
-475	138	4042	-850	-843	-9051	66	56	114	1385	105687	1383	72882752
-484	145	4066	-852	-844	-9075	66	56	114	1386	105788	1384	72882754
-461	148	4056	-849	-845	-9075	68	56	116	1387	105840	1385	72882759
-487	125	4076	-847	-846	-9079	68	56	116	1388	105941	1386	72882759
-467	127	4066	-849	-843	-9053	76	52	118	1389	105994	1387	72882792
-466	134	4054	-849	-841	-9056	76	52	118	1390	106094	1388	72882792
-470	163	4046	-848	-845	-9080	79	51	123	1391	106147	1389	72882795
-478	129	4048	-855	-841	-9058	79	51	123	1392	106247	1390	72882796
-470	138	4057	-853	-843	-9049	85	53	117	1393	106300	1391	72882797
-462	120	4065	-847	-845	-9065	85	53	117	1394	106400	1392	72882799
-465	130	4029	-851	-847	-9079	87	45	121	1395	106453	1393	72882800
-471	126	4050	-852	-846	-9070	87	45	121	1396	106553	1394	72882803
-465	130	4068	-848	-838	-9060	102	42	124	1397	106606	1395	72882804
-472	134	4060	-849	-846	-9084	102	42	124	1398	106706	1396	72882807
-486	149	4067	-851	-847	-9079	102	36	130	1399	106759	1397	72882839
-478	149	4052	-851	-844	-9047	102	36	130	1400	106860	1398	72882840
-480	136	4044	-846	-841	-9069	99	31	131	1401	106912	1399	72882843
-467	147	4057	-848	-843	-9084	99	31	131	1402	107012	1400	72882843
-475	124	4052	-854	-839	-9054	104	34	126	1403	107065	1401	72882845
-465	136	4062	-849	-843	-9080	104	34	126	1404	107165	1402	72882847
-460	147	4068	-849	-844	-9098	108	18	128	1405	107218	1403	72882847
-465	149	4045	-856	-843	-9076	108	18	128	1406	107318	1404	72882851
-466	145	4051	-851	-843	-9067	113	9	135	1407	107371	1405	72882852
-457	147	4054	-845	-847	-9069	113	9	135	1408	107471	1406	72882855
-481	161	4061	-847	-846	-9061	115	5	129	1409	107524	1407	72882906
-484	141	4059	-853	-844	-9051	115	5	129	1410	107624	1408	72882907
-482	146	4086	-847	-837	-9065	112	0	132	1411	107677	1409	72882912
-469	162	4057	-841	-847	-9071	112	0	132	1412	107777	1410	72882913
-468	151	4040	-852	-845	-9056	109	-5	131	1413	107830	1411	72882915
-461	145	4075	-850	-842	-9055	109	-5	131	1414	107930	1412	72882917
-472	149	4082	-847	-843	-9086	109	-13	131	1415	107984	1413	72882918
-491	157	4072	-854	-840	-9078	109	-13	131	1416	108084	1414	72882918
-457	140	4060	-854	-842	-9070	111	-19	139	1417	108137	1415	72882919
-462	152	4044	-850	-842	-9066	111	-19	139	1418	108238	1416	72882920
-477	144	4039	-848	-843	-9072	106	-22	136	1419	108291	1417	72882921
-455	154	4041	-858	-849	-9077	106	-22	136	1420	108391	1418	72882921
-459	154	4095	-850	-839	-9034	106	-26	138	1421	108444	1419	72882928
-450	160	4082	-847	-839	-9084	106	-26	138	1422	108545	1420	72882928
-480	144	4070	-854	-850	-9076	103	-31	137	1423	108597	1421	72882938
-482	163	4075	-851	-840	-9045	103	-31	137	1424	108697	1422	72882939
-468	165	4062	-849	-839	-9072	96	-32	138	1425	108750	1423	72882942
-469	152	4046	-853	-840	-9058	96	-32	138	1426	108850	1424	72882952
-472	156	4086	-853	-841	-9074	101	-35	143	1427	108903	1425	72882953
-471	167	4071	-848	-844	-9045	101	-35	143	1428	109003	1426	72882986
-478	173	4056	-848	-846	-9085	97	-41	145	1429	109056	1427	72882987
-479	152	4050	-848	-840	-9075	97	-41	145	1430	109156	1428	72882989
-460	155	4066	-848	-841	-9045	90	-52	148	1431	109209	1429	72882991
-484	169	4071	-849	-836	-9063	90	-52	148	1432	109309	1430	72882992
-459	154	4069	-853	-847	-9078	86	-50	140	1433	109362	1431	72882998
-475	142	4038	-851	-841	-9066	86	-50	140	1434	109462	1432	72882999
-471	166	4055	-847	-841	-9073	81	-51	143	1435	109515	1433	72883000
-456	178	4060	-851	-848	-9066	81	-51	143	1436	109616	1434	72883002
-471	155	4089	-849	-845	-9081	79	-55	143	1437	109668	1435	72883003
-485	153	4058	-849	-843	-9059	79	-55	143	1438	109768	1436	72883012
-467	158	4055	-849	-840	-9074	77	-59	151	1439	109821	1437	72883013
-462	157	4053	-851	-843	-9065	77	-59	151	1440	109921	1438	72883015
-473	156	4044	-855	-843	-9076	80	-62	148	1441	109974	1439	72883026
-483	151	4048	-853	-840	-9059	80	-62	148	1442	110074	1440	72883027
-476	158	4069	-848	-844	-9096	75	-61	147	1443	110127	1441	72883060
-459	152	4068	-851	-846	-9069	75	-61	147	1444	110227	1442	72883061
-483	155	4080	-850	-836	-9061	72	-66	154	1445	110280	1443	72883063
-458	161	4070	-849	-843	-9062	72	-66	154	1446	110380	1444	72883064
-476	176	4062	-850	-843	-9072	70	-68	146	1447	110433	1445	72883064
-504	175	4056	-854	-839	-9055	70	-68	146	1448	110533	1446	72883068
-466	163	4071	-852	-844	-9077	72	-66	146	1449	110586	1447	72883069
-478	172	4063	-849	-842	-9067	72	-66	146	1450	110686	1448	72883070
-469	152	4061	-852	-842	-9071	58	-70	152	1451	110739	1449	72883073
-470	171	4052	-852	-845	-9047	58	-70	152	1452	110839	1450	72883074
-490	164	4054	-851	-840	-9066	66	-72	150	1453	110892	1451	72883110
-472	168	4044	-856	-845	-9076	66	-72	150	1454	110992	1452	72883110
-491	163	4050	-855	-841	-9079	55	-75	159	1455	111045	1453	72883114
-485	167	4054	-851	-838	-9071	55	-75	159	1456	111145	1454	72883114
-474	148	4078	-853	-844	-9061	56	-78	154	1457	111198	1455	72883114
-480	167	4046	-854	-837	-9055	56	-78	154	1458	111298	1456	72883118
-487	174	4058	-852	-841	-9073	49	-73	153	1459	111351	1457	72883118
-476	182	4071	-850	-849	-9097	49	-73	153	1460	111451	1458	72883121
-497	178	4079	-854	-843	-9102	55	-73	153	1461	111504	1459	72883121
-491	165	4038	-853	-845	-9061	55	-73	153	1462	111605	1460	72883124
-472	164	4046	-850	-838	-9056	52	-84	152	1463	111658	1461	72883158
-494	154	4059	-851	-842	-9079	52	-84	152	1464	111758	1462	72883159
-493	150	4056	-853	-841	-9080	49	-79	159	1465	111811	1463	72883160
-482	160	4061	-844	-842	-9073	49	-79	159	1466	111911	1464	72883161
-486	167	4071	-848	-846	-9071	40	-78	154	1467	111964	1465	72883163
-488	172	4038	-851	-843	-9071	40	-78	154	1468	112064	1466	72883164
-490	162	4031	-852	-843	-9075	41	-75	151	1469	112117	1467	72883165
-479	166	4041	-851	-844	-9075	41	-75	151	1470	112217	1468	72883169
-486	163	4040	-853	-840	-9078	39	-89	157	1471	112270	1469	72883170
-502	172	4068	-851	-840	-9072	39	-89	157	1472	112370	1470	72883174
-494	168	4063	-852	-840	-9077	38	-84	158	1473	112423	1471	72883208
-491	155	4038	-850	-842	-9075	38	-84	158	1474	112523	1472	72883209
-483	161	4048	-855	-848	-9097	38	-84	156	1475	112576	1473	72883210
-498	172	4058	-853	-843	-9073	38	-84	156	1476	112676	1474	72883211
-497	189	4059	-849	-846	-9071	27	-85	149	1477	112729	1475	72883213
-488	173	4056	-856	-842	-9082	27	-85	149	1478	112829	1476	72883214
-509	171	4076	-853	-837	-9107	26	-80	154	1479	112882	1477	72883215
-487	168	4078	-852	-846	-9067	26	-80	154	1480	112982	1478	72883218
-492	159	4043	-851	-848	-9082	29	-85	155	1481	113035	1479	72883221
-485	170	4055	-849	-843	-9069	29	-85	155	1482	113135	1480	72883222
-490	178	4071	-853	-851	-9093	18	-84	152	1483	113188	1481	72883254
-500	176	4055	-849	-844	-9095	18	-84	152	1484	113288	1482	72883255
-504	168	4049	-851	-845	-9076	20	-88	156	1485	113341	1483	72883258
-497	146	4067	-854	-841	-9096	20	-88	156	1486	113441	1484	72883258
-483	158	4055	-849	-841	-9092	23	-87	151	1487	113494	1485	72883261
-492	153	4050	-852	-846	-9089	23	-87	151	1488	113594	1486	72883262
-507	169	4065	-854	-842	-9079	17	-79	151	1489	113647	1487	72883262
-500	163	4048	-852	-842	-9094	17	-79	151	1490	113747	1488	72883267
-483	179	4075	-849	-843	-9086	13	-85	145	1491	113800	1489	72883267
-506	173	4073	-853	-844	-9086	13	-85	145	1492	113900	1490	72883303
-512	168	4047	-856	-844	-9094	11	-87	151	1493	113953	1491	72883303
-515	184	4037	-851	-843	-9055	11	-87	151	1494	114053	1492	72883304
-509	147	4068	-852	-839	-9069	7	-85	147	1495	114106	1493	72883305
-486	154	4064	-854	-847	-9088	7	-85	147	1496	114206	1494	72883306
-491	168	4062	-853	-844	-9071	6	-80	138	1497	114259	1495	72883309
-501	187	4053	-851	-851	-9066	6	-80	138	1498	114359	1496	72883309
-502	165	4057	-855	-846	-9077	5	-81	147	1499	114412	1497	72883311
-518	166	4077	-851	-839	-9091	5	-81	147	1500	114512	1498	72883318
-485	172	4036	-849	-845	-9060	8	-86	146	1501	114565	1499	72883318
-511	166	4035	-852	-839	-9109	8	-86	146	1502	114666	1500	72883328
-508	148	4062	-857	-839	-9084	-6	-84	154	1503	114718	1501	72883328
-503	137	4053	-850	-844	-9081	-6	-84	154	1504	114818	1502	72883331
-527	161	4054	-845	-846	-9079	-5	-79	149	1505	114871	1503	72883365
-510	162	4086	-851	-844	-9087	-5	-79	149	1506	114971	1504	72883368
-497	166	4056	-853	-841	-9099	-8	-82	148	1507	115024	1505	72883369
-507	169	4049	-848	-845	-9057	-8	-82	148	1508	115124	1506	72883370
-493	177	4060	-852	-846	-9085	-12	-76	144	1509	115177	1507	72883372
-491	172	4042	-857	-844	-9100	-12	-76	144	1510	115277	1508	72883373
-502	164	4034	-853	-845	-9072	-18	-78	142	1511	115330	1509	72883374
-511	169	4065	-852	-844	-9086	-18	-78	142	1512	115430	1510	72883377
-503	151	4027	-853	-840	-9112	-20	-78	138	1513	115483	1511	72883380
-495	168	4073	-856	-845	-9081	-20	-78	138	1514	115583	1512	72883380
-522	155	4096	-854	-845	-9069	-20	-74	152	1515	115636	1513	72883414
-519	165	4046	-851	-843	-9069	-20	-74	152	1516	115736	1514	72883415
-506	164	4026	-853	-841	-9067	-26	-72	140	1517	115789	1515	72883418
-503	166	4039	-852	-839	-9065	-26	-72	140	1518	115889	1516	72883419
-511	141	4054	-855	-842	-9064	-30	-66	138	1519	115942	1517	72883421
-503	164	4060	-854	-842	-9082	-30	-66	138	1520	116042	1518	72883422
-499	156	4049	-848	-840	-9089	-30	-66	140	1521	116095	1519	72883424
-503	153	4083	-848	-848	-9074	-30	-66	140	1522	116195	1520	72883425
-524	154	4051	-853	-838	-9081	-39	-67	141	1523	116248	1521	72883426
-523	164	4069	-849	-842	-9056	-39	-67	141	1524	116348	1522	72883436
-501	177	4078	-847	-850	-9059	-37	-67	145	1525	116401	1523	72883440
-510	154	4058	-853	-842	-9088	-37	-67	145	1526	116501	1524	72883440
-502	140	4068	-856	-842	-9063	-44	-62	142	1527	116554	1525	72883473
-497	152	4062	-849	-839	-9080	-44	-62	142	1528	116654	1526	72883474
-514	162	4058	-849	-841	-9060	-42	-64	142	1529	116707	1527	72883477
-525	151	4069	-853	-843	-9082	-42	-64	142	1530	116807	1528	72883477
-511	168	4068	-850	-843	-9092	-48	-62	140	1531	116860	1529	72883479
-509	163	4055	-850	-846	-9099	-48	-62	140	1532	116960	1530	72883481
-491	137	4066	-857	-840	-9091	-55	-53	133	1533	117013	1531	72883481
-530	134	4047	-855	-841	-9066	-55	-53	133	1534	117113	1532	72883486
-503	155	4059	-850	-846	-9062	-48	-56	150	1535	117166	1533	72883486
-501	157	4071	-848	-837	-9071	-48	-56	150	1536	117266	1534	72883489
-518	155	4068	-852	-843	-9064	-60	-46	146	1537	117319	1535	72883546
-498	171	4047	-847	-844	-9068	-60	-46	146	1538	117419	1536	72883547
-507	171	4065	-845	-842	-9048	-62	-48	148	1539	117472	1537	72883549
-492	156	4077	-855	-847	-9071	-62	-48	148	1540	117572	1538	72883550
-513	149	4056	-854	-836	-9076	-58	-38	148	1541	117626	1539	72883552
-510	150	4062	-849	-838	-9101	-58	-38	148	1542	117726	1540	72883553
-498	134	4069	-854	-847	-9063	-63	-29	151	1543	117779	1541	72883554
-514	151	4058	-851	-839	-9078	-63	-29	151	1544	117879	1542	72883562
-494	145	4042	-847	-844	-9071	-58	-36	158	1545	117932	1543	72883562
-514	143	4032	-852	-847	-9076	-58	-36	158	1546	118032	1544	72883564
-522	152	4058	-852	-841	-9057	-70	-18	152	1547	118085	1545	72883565
-513	145	4057	-852	-839	-9076	-70	-18	152	1548	118185	1546	72883565
-498	154	4035	-847	-841	-9062	-64	-28	162	1549	118238	1547	72883566
-530	145	4051	-851	-845	-9061	-64	-28	162	1550	118338	1548	72883569
-512	138	4069	-850	-841	-9064	-54	-18	166	1551	118391	1549	72883571
-529	154	4021	-845	-837	-9087	-54	-18	166	1552	118491	1550	72883572
-516	150	4077	-852	-844	-9046	-56	-14	160	1553	118544	1551	72883574
-502	143	4056	-857	-844	-9050	-56	-14	160	1554	118644	1552	72883609
-512	137	4051	-846	-837	-9088	-48	-24	178	1555	118697	1553	72883610
-506	146	4019	-848	-844	-9085	-48	-24	178	1556	118797	1554	72883613
-511	129	4077	-855	-842	-9079	-48	-6	166	1557	118850	1555	72883613
-512	110	4060	-854	-842	-9084	-48	-6	166	1558	118950	1556	72883615
-502	136	4057	-845	-843	-9083	-46	-20	174	1559	119003	1557	72883617
-508	135	4069	-850	-841	-9076	-46	-20	174	1560	119103	1558	72883617
-497	124	4043	-851	-841	-9057	-34	0	168	1561	119156	1559	72883620
-527	153	4058	-848	-839	-9077	-34	0	168	1562	119256	1560	72883621
-524	147	4044	-849	-844	-9065	-37	-5	159	1563	119309	1561	72883624
-501	134	4083	-857	-841	-9079	-37	-5	159	1564	119409	1562	72883658
-520	135	4052	-854	-840	-9070	-19	-7	167	1565	119462	1563	72883659
-518	144	4085	-850	-847	-9071	-19	-7	167	1566	119563	1564	72883661
-492	138	4059	-848	-843	-9055	-22	4	160	1567	119615	1565	72883662
-524	134	4070	-858	-842	-9071	-22	4	160	1568	119715	1566	72883664
-504	146	4046	-845	-846	-9073	-31	-9	165	1569	119768	1567	72883666
-505	154	4069	-847	-844	-9083	-31	-9	165	1570	119868	1568	72883666
-509	130	4055	-858	-845	-9064	-14	14	152	1571	119921	1569	72883670
-498	123	4051	-852	-842	-9084	-14	14	152	1572	120021	1570	72883670
-510	123	4073	-850	-843	-9072	-20	0	152	1573	120074	1571	72883674
-504	134	4043	-853	-850	-9074	-20	0	152	1574	120174	1572	72883684
-503	141	4060	-849	-836	-9060	-19	3	155	1575	120227	1573	72883685
-525	142	4059	-844	-846	-9069	-19	3	155	1576	120327	1574	72883721
-491	159	4071	-848	-850	-9062	-12	12	148	1577	120380	1575	72883722
-512	145	4051	-854	-838	-9067	-12	12	148	1578	120481	1576	72883723
-510	137	4072	-852	-842	-9064	-10	0	150	1579	120534	1577	72883724
-496	140	4066	-850	-845	-9079	-10	0	150	1580	120634	1578	72883725
-489	128	4087	-854	-840	-9066	-3	21	135	1581	120687	1579	72883726
-495	117	4076	-853	-836	-9052	-3	21	135	1582	120787	1580	72883727
-508	125	4048	-847	-840	-9083	-14	6	142	1583	120840	1581	72883732
-503	137	4066	-850	-842	-9087	-14	6	142	1584	120940	1582	72883733
-512	135	4062	-853	-843	-9051	-6	18	144	1585	120993	1583	72883733
-505	135	4048	-849	-843	-9064	-6	18	144	1586	121094	1584	72883766
-498	129	4066	-848	-843	-9068	-2	22	136	1587	121146	1585	72883766
-505	128	4075	-853	-843	-9060	-2	22	136	1588	121246	1586	72883770
-489	121	4060	-853	-838	-9045	-3	17	135	1589	121299	1587	72883770
-499	129	4044	-848	-843	-9079	-3	17	135	1590	121399	1588	72883772
-502	137	4033	-849	-839	-9062	5	25	131	1591	121452	1589	72883774
-495	131	4069	-850	-840	-9054	5	25	131	1592	121552	1590	72883774
-502	121	4059	-852	-841	-9063	-3	23	135	1593	121605	1591	72883777
-483	144	4056	-848	-845	-9080	-3	23	135	1594	121705	1592	72883777
-472	127	4047	-850	-843	-9061	4	28	128	1595	121758	1593	72883780
-526	117	4062	-854	-836	-9077	4	28	128	1596	121858	1594	72883813
-482	125	4068	-846	-847	-9078	11	29	127	1597	121911	1595	72883813
-498	141	4072	-844	-839	-9078	11	29	127	1598	122011	1596	72883816
-517	131	4068	-850	-833	-9066	8	32	126	1599	122064	1597	72883817
-491	132	4060	-853	-842	-9074	8	32	126	1600	122164	1598	72883819
-505	135	4051	-849	-844	-9063	13	43	121	1601	122217	1599	72883820
-499	135	4064	-846	-844	-9055	13	43	121	1602	122317	1600	72883821
-485	123	4057	-847	-844	-9089	19	33	129	1603	122370	1601	72883829
-479	106	4067	-852	-843	-9066	19	33	129	1604	122470	1602	72883830
-485	123	4053	-847	-848	-9066	19	35	125	1605	122523	1603	72883831
-496	106	4057	-848	-840	-9051	19	35	125	1606	122623	1604	72883863
-495	123	4060	-850	-839	-9066	16	40	120	1607	122676	1605	72883863
-486	123	4079	-847	-846	-9076	16	40	120	1608	122776	1606	72883869
-498	140	4065	-848	-840	-9083	24	38	118	1609	122829	1607	72883870
-475	116	4067	-854	-842	-9060	24	38	118	1610	122929	1608	72883873
-478	133	4061	-852	-844	-9069	27	41	115	1611	122982	1609	72883873
-482	133	4056	-849	-845	-9073	27	41	115	1612	123083	1610	72883875
-478	119	4064	-853	-841	-9066	26	46	112	1613	123136	1611	72883876
-480	123	4077	-853	-837	-9086	26	46	112	1614	123236	1612	72883877
-481	134	4068	-848	-843	-9073	30	36	112	1615	123289	1613	72883911
-491	141	4065	-851	-842	-9035	30	36	112	1616	123389	1614	72883912
-467	138	4075	-853	-840	-9067	32	42	110	1617	123442	1615	72883914
-475	138	4058	-850	-847	-9069	32	42	110	1618	123542	1616	72883915
-469	130	4066	-852	-841	-9078	30	46	112	1619	123595	1617	72883916
-488	107	4025	-851	-838	-9082	30	46	112	1620	123695	1618	72883919
-470	116	4044	-847	-846	-9083	36	46	106	1621	123748	1619	72883920
-504	126	4047	-850	-835	-9078	36	46	106	1622	123848	1620	72883923
-488	119	4078	-854	-835	-9061	38	50	106	1623	123901	1621	72883924
-471	130	4044	-850	-841	-9055	38	50	106	1624	124001	1622	72883925
-473	141	4040	-851	-837	-9072	37	45	107	1625	124054	1623	72883960
-482	131	4045	-847	-841	-9070	37	45	107	1626	124155	1624	72883961
-484	122	4076	-855	-841	-9058	38	48	102	1627	124207	1625	72883962
-484	119	4094	-853	-842	-9059	38	48	102	1628	124307	1626	72883963
-471	143	4049	-847	-845	-9063	39	53	105	1629	124360	1627	72883964
-481	133	4057	-849	-841	-9082	39	53	105	1630	124460	1628	72883967
-478	139	4075	-849	-841	-9073	42	50	104	1631	124513	1629	72883972
-479	132	4055	-848	-838	-9075	42	50	104	1632	124614	1630	72883973
-487	144	4090	-851	-843	-9082	45	55	105	1633	124666	1631	72883974
-462	155	4069	-852	-841	-9045	45	55	105	1634	124766	1632	72883976
-490	116	4074	-851	-838	-9061	49	55	109	1635	124819	1633	72884007
-474	133	4066	-847	-841	-9064	49	55	109	1636	124919	1634	72884007
-467	138	4066	-852	-846	-9072	47	55	105	1637	124972	1635	72884010
-500	127	4069	-853	-840	-9096	47	55	105	1638	125072	1636	72884011
-471	141	4050	-846	-847	-9080	56	60	108	1639	125125	1637	72884013
-478	139	4060	-850	-842	-9061	56	60	108	1640	125225	1638	72884014
-473	129	4065	-850	-841	-9066	50	54	108	1641	125278	1639	72884015
-463	123	4065	-849	-845	-9055	50	54	108	1642	125378	1640	72884019
-480	133	4079	-850	-844	-9073	59	57	111	1643	125431	1641	72884020
-473	135	4073	-849	-845	-9080	59	57	111	1644	125531	1642	72884023
-472	132	4049	-853	-845	-9078	62	56	114	1645	125584	1643	72884056
-465	140	4066	-851	-842	-9057	62	56	114	1646	125685	1644	72884056
-464	152	4067	-852	-843	-9080	71	57	113	1647	125737	1645	72884059
-473	132	4039	-851	-844	-9077	71	57	113	1648	125837	1646	72884060
-475	154	4023	-848	-844	-9062	74	56	112	1649	125890	1647	72884062
-460	122	4042	-852	-846	-9082	74	56	112	1650	125990	1648	72884063
-476	125	4057	-851	-839	-9072	74	54	112	1651	126043	1649	72884064
-475	127	4058	-849	-843	-9072	74	54	112	1652	126143	1650	72884070
-465	148	4060	-850	-844	-9057	82	54	118	1653	126196	1651	72884071
-480	133	4060	-851	-841	-9065	82	54	118	1654	126296	1652	72884074
-470	122	4050	-852	-842	-9036	87	43	129	1655	126349	1653	72884112
-484	136	4069	-846	-843	-9061	87	43	129	1656	126449	1654	72884114
-466	141	4070	-846	-841	-9084	92	44	126	1657	126502	1655	72884115
-467	150	4080	-855	-846	-9078	92	44	126	1658	126602	1656	72884116
-480	140	4060	-848	-843	-9065	88	44	120	1659	126655	1657	72884121
-464	157	4043	-846	-844	-9070	88	44	120	1660	126755	1658	72884121
-461	143	4088	-853	-845	-9059	100	36	126	1661	126808	1659	72884122
-457	135	4046	-857	-843	-9054	100	36	126	1662	126909	1660	72884122
-470	144	4055	-852	-843	-9081	107	35	123	1663	126961	1661	72884122
-473	158	4046	-848	-838	-9082	107	35	123	1664	127061	1662	72884153
-475	145	4072	-853	-840	-9052	110	20	132	1665	127114	1663	72884153
-470	135	4068	-851	-843	-9064	110	20	132	1666	127214	1664	72884153
-466	151	4034	-848	-842	-9085	109	17	135	1667	127267	1665	72884157
-498	132	4052	-849	-844	-9060	109	17	135	1668	127367	1666	72884157
-492	138	4041	-849	-845	-9058	107	13	129	1669	127420	1667	72884189
-466	150	4057	-843	-844	-9062	107	13	129	1670	127520	1668	72884189
-472	152	4030	-845	-845	-9067	103	11	131	1671	127573	1669	72884190
-479	160	4059	-850	-842	-9074	103	11	131	1672	127673	1670	72884191
-475	153	4062	-848	-845	-9054	110	-4	136	1673	127726	1671	72884191
-477	152	4038	-850	-842	-9074	110	-4	136	1674	127826	1672	72884194
-472	133	4079	-855	-842	-9082	117	-9	137	1675	127879	1673	72884195
-481	153	4076	-856	-842	-9057	117	-9	137	1676	127979	1674	72884196
-476	167	4041	-846	-840	-9059	107	-13	135	1677	128032	1675	72884198
-450	160	4037	-849	-838	-9074	107	-13	135	1678	128132	1676	72884199
-450	140	4057	-853	-837	-9081	107	-13	137	1679	128185	1677	72884203
-490	148	4059	-848	-841	-9051	107	-13	137	1680	128285	1678	72884203
-470	143	4043	-849	-842	-9074	108	-22	142	1681	128338	1679	72884207
-486	131	4057	-853	-840	-9084	108	-22	142	1682	128439	1680	72884242
-461	153	4074	-849	-841	-9079	100	-28	138	1683	128491	1681	72884243
-467	163	4054	-849	-842	-9084	100	-28	138	1684	128592	1682	72884244
-469	168	4060	-850	-841	-9051	103	-35	137	1685	128644	1683	72884245
-457	175	4060	-850	-843	-9056	103	-35	137	1686	128744	1684	72884247
-492	151	4049	-846	-843	-9072	98	-38	140	1687	128797	1685	72884250
-473	154	4050	-849	-840	-9068	98	-38	140	1688	128897	1686	72884251
-469	156	4026	-849	-843	-9074	93	-39	139	1689	128950	1687	72884252
-472	155	4057	-847	-843	-9053	93	-39	139	1690	129050	1688	72884252
-473	154	4072	-850	-845	-9077	92	-48	146	1691	129103	1689	72884256
-459	146	4046	-851	-842	-9071	92	-48	146	1692	129203	1690	72884289
-470	152	4056	-849	-843	-9072	90	-52	140	1693	129256	1691	72884290
-452	163	4026	-849	-844	-9046	90	-52	140	1694	129357	1692	72884296
-472	165	4063	-848	-840	-9066	88	-50	146	1695	129410	1693	72884296
-465	151	4083	-850	-839	-9065	88	-50	146	1696	129511	1694	72884300
-465	168	4062	-848	-844	-9062	85	-55	143	1697	129563	1695	72884302
-490	162	4055	-848	-835	-9074	85	-55	143	1698	129664	1696	72884302
-462	164	4038	-849	-842	-9064	81	-57	143	1699	129717	1697	72884304
-481	161	4047	-851	-844	-9054	81	-57	143	1700	129817	1698	72884304
-478	178	4063	-852	-842	-9052	77	-65	151	1701	129870	1699	72884313
-454	163	4049	-850	-845	-9067	77	-65	151	1702	129970	1700	72884313
-484	169	4055	-850	-838	-9056	72	-60	148	1703	130023	1701	72884316
-467	148	4058	-853	-843	-9053	72	-60	148	1704	130123	1702	72884349
-456	153	4029	-852	-843	-9057	69	-63	147	1705	130176	1703	72884350
-476	151	4067	-851	-839	-9087	69	-63	147	1706	130276	1704	72884353
-458	155	4030	-853	-844	-9064	72	-70	148	1707	130329	1705	72884353
-472	180	4048	-850	-837	-9077	72	-70	148	1708	130429	1706	72884356
-488	155	4078	-850	-840	-9063	59	-65	149	1709	130482	1707	72884360
-491	155	4050	-850	-847	-9085	59	-65	149	1710	130582	1708	72884373
-486	171	4059	-845	-842	-9058	61	-67	149	1711	130635	1709	72884375
-474	165	4059	-848	-844	-9067	61	-67	149	1712	130735	1710	72884375
-478	149	4061	-856	-842	-9067	65	-65	149	1713	130788	1711	72884376
-481	154	4059	-846	-843	-9044	65	-65	149	1714	130888	1712	72884397
-474	176	4048	-847	-843	-9080	60	-72	148	1715	130941	1713	72884398
-503	167	4077	-852	-839	-9075	60	-72	148	1716	131042	1714	72884401
-471	183	4073	-851	-845	-9050	59	-73	159	1717	131094	1715	72884401
-477	181	4028	-849	-843	-9065	59	-73	159	1718	131194	1716	72884403
-488	150	4070	-850	-838	-9065	53	-73	147	1719	131247	1717	72884404
-468	150	4042	-853	-842	-9075	53	-73	147	1720	131348	1718	72884405
-479	163	4073	-851	-841	-9090	52	-78	154	1721	131401	1719	72884412
-500	178	4077	-845	-837	-9094	52	-78	154	1722	131501	1720	72884413
-482	167	4054	-850	-844	-9084	52	-80	156	1723	131554	1721	72884414
-496	169	4076	-850	-843	-9078	52	-80	156	1724	131654	1722	72884452
-481	175	4059	-851	-845	-9046	47	-81	159	1725	131707	1723	72884454
-477	165	4060	-849	-845	-9073	47	-81	159	1726	131807	1724	72884455
-502	155	4046	-851	-842	-9069	47	-79	151	1727	131860	1725	72884456
-472	143	4049	-853	-847	-9071	47	-79	151	1728	131960	1726	72884456
-494	169	4044	-851	-838	-9076	42	-80	150	1729	132013	1727	72884457
-479	155	4068	-852	-840	-9093	42	-80	150	1730	132114	1728	72884459
-473	172	4074	-850	-843	-9075	40	-78	150	1731	132166	1729	72884460
-484	185	4055	-848	-836	-9082	40	-78	150	1732	132266	1730	72884460
-481	171	4047	-851	-844	-9077	38	-84	154	1733	132319	1731	72884494
-472	162	4044	-851	-840	-9057	38	-84	154	1734	132419	1732	72884495
-495	170	4043	-852	-842	-9062	39	-81	151	1735	132472	1733	72884497
-478	165	4033	-854	-842	-9070	39	-81	151	1736	132572	1734	72884498
-515	164	4069	-853	-837	-9064	34	-86	152	1737	132625	1735	72884499
-487	178	4023	-850	-845	-9086	34	-86	152	1738	132726	1736	72884502
-478	166	4050	-852	-845	-9089	26	-78	160	1739	132778	1737	72884502
-495	186	4084	-854	-840	-9085	26	-78	160	1740	132878	1738	72884508
-484	173	4070	-852	-848	-9088	29	-89	153	1741	132931	1739	72884510
-499	169	4062	-849	-843	-9063	29	-89	153	1742	133031	1740	72884511
-486	176	4084	-852	-838	-9070	31	-87	157	1743	133084	1741	72884544
-513	161	4053	-853	-843	-9089	31	-87	157	1744	133184	1742	72884544
-487	171	4064	-847	-843	-9085	20	-88	154	1745	133237	1743	72884546
-473	185	4081	-850	-844	-9087	20	-88	154	1746	133337	1744	72884548
-504	178	4047	-851	-842	-9078	19	-79	151	1747	133390	1745	72884548
-500	171	4055	-850	-841	-9075	19	-79	151	1748	133490	1746	72884552
-500	181	4060	-852	-845	-9058	16	-82	150	1749	133543	1747	72884552
-515	159	4084	-853	-839	-9071	16	-82	150	1750	133644	1748	72884555
-500	157	4068	-855	-846	-9086	7	-85	155	1751	133696	1749	72884556
-494	157	4044	-855	-846	-9068	7	-85	155	1752	133796	1750	72884556
-510	177	4074	-850	-843	-9079	21	-85	155	1753	133849	1751	72884592
-478	172	4083	-853	-842	-9094	21	-85	155	1754	133949	1752	72884592
-504	176	4053	-854	-849	-9066	11	-85	155	1755	134002	1753	72884595
-483	181	4070	-848	-849	-9046	11	-85	155	1756	134102	1754	72884595
-493	174	4061	-850	-845	-9096	-1	-81	147	1757	134155	1755	72884598
-492	172	4071	-856	-843	-9105	-1	-81	147	1758	134255	1756	72884599
-499	152	4066	-852	-842	-9098	1	-77	147	1759	134308	1757	72884600
-497	166	4055	-850	-840	-9076	1	-77	147	1760	134408	1758	72884603
-511	164	4034	-850	-838	-9111	-3	-79	147	1761	134461	1759	72884603
-491	181	4054	-852	-841	-9098	-3	-79	147	1762	134562	1760	72884609
-521	161	4062	-849	-839	-9063	-9	-83	149	1763	134615	1761	72884644
-524	164	4050	-851	-844	-9089	-9	-83	149	1764	134715	1762	72884645
-505	175	4059	-855	-844	-9078	-1	-85	153	1765	134768	1763	72884649
-504	169	4069	-856	-843	-9086	-1	-85	153	1766	134868	1764	72884650
-497	154	4087	-853	-842	-9068	-12	-74	140	1767	134921	1765	72884650
-501	169	4057	-848	-844	-9076	-12	-74	140	1768	135022	1766	72884652
-496	158	4065	-847	-850	-9085	-16	-80	142	1769	135075	1767	72884652
-489	171	4068	-847	-842	-9060	-16	-80	142	1770	135175	1768	72884655
-507	162	4089	-850	-843	-9100	-11	-81	143	1771	135228	1769	72884656
-492	168	4060	-850	-844	-9067	-11	-81	143	1772	135328	1770	72884659
-504	160	4067	-851	-843	-9067	-15	-77	147	1773	135381	1771	72884691
-498	168	4062	-853	-843	-9061	-15	-77	147	1774	135482	1772	72884692
-499	163	4049	-856	-845	-9077	-18	-78	144	1775	135535	1773	72884694
-495	157	4066	-852	-843	-9071	-18	-78	144	1776	135635	1774	72884695
-510	161	4059	-849	-842	-9083	-29	-75	139	1777	135688	1775	72884699
-518	163	4057	-852	-849	-9093	-29	-75	139	1778	135789	1776	72884700
-538	151	4060	-848	-842	-9097	-35	-69	139	1779	135842	1777	72884700
-506	167	4065	-850	-844	-9082	-35	-69	139	1780	135942	1778	72884702
-520	155	4048	-853	-844	-9067	-27	-69	147	1781	135995	1779	72884702
-524	142	4074	-851	-843	-9085	-27	-69	147	1782	136095	1780	72884737
-507	164	4040	-850	-846	-9064	-35	-71	141	1783	136148	1781	72884737
-525	156	4041	-851	-845	-9061	-35	-71	141	1784	136249	1782	72884737
-524	159	4062	-849	-842	-9074	-37	-69	147	1785	136302	1783	72884745
-515	174	4063	-854	-842	-9068	-37	-69	147	1786	136403	1784	72884746
-522	152	4067	-851	-839	-9087	-42	-60	140	1787	136456	1785	72884749
-514	166	4066	-853	-842	-9087	-42	-60	140	1788	136557	1786	72884750
-515	143	4040	-858	-846	-9069	-43	-53	137	1789	136609	1787	72884751
-518	136	4063	-852	-839	-9071	-43	-53	137	1790	136710	1788	72884753
-496	140	4069	-848	-843	-9055	-44	-62	150	1791	136763	1789	72884753
-511	154	4057	-848	-844	-9074	-44	-62	150	1792	136864	1790	72884763
-506	158	4070	-849	-842	-9102	-51	-55	145	1793	136917	1791	72884764
-485	165	4064	-846	-839	-9087	-51	-55	145	1794	137017	1792	72884767
-494	160	4068	-853	-838	-9073	-50	-54	146	1795	137070	1793	72884826
-520	158	4067	-855	-849	-9071	-50	-54	146	1796	137170	1794	72884827
-507	167	4064	-848	-841	-9057	-53	-49	145	1797	137223	1795	72884829
-505	146	4023	-857	-843	-9047	-53	-49	145	1798	137324	1796	72884831
-508	135	4076	-856	-844	-9090	-56	-34	148	1799	137376	1797	72884833
-523	140	4076	-847	-840	-9076	-56	-34	148	1800	137476	1798	72884833
-516	161	4068	-846	-846	-9070	-56	-44	148	1801	137529	1799	72884834
-518	153	4058	-853	-844	-9070	-56	-44	148	1802	137629	1800	72884841
-531	151	4047	-854	-846	-9066	-64	-30	148	1803	137682	1801	72884842
-495	142	4034	-848	-847	-9091	-64	-30	148	1804	137782	1802	72884843
-532	149	4044	-850	-842	-9093	-65	-39	157	1805	137835	1803	72884844
-513	140	4070	-855	-843	-9068	-65	-39	157	1806	137935	1804	72884845
-503	144	4061	-849	-838	-9069	-57	-25	149	1807	137988	1805	72884851
-525	156	4048	-843	-837	-9066	-57	-25	149	1808	138088	1806	72884852
-503	153	4071	-855	-844	-9073	-60	-24	158	1809	138141	1807	72884852
-529	152	4061	-855	-843	-9090	-60	-24	158	1810	138241	1808	72884853
-499	158	4051	-850	-839	-9050	-57	-27	169	1811	138294	1809	72884853
-496	151	4058	-855	-846	-9047	-57	-27	169	1812	138394	1810	72884860
-523	109	4055	-855	-845	-9061	-56	-8	168	1813	138447	1811	72884860
-496	123	4057	-851	-846	-9049	-56	-8	168	1814	138548	1812	72884871
-499	135	4072	-847	-839	-9054	-52	-32	178	1815	138601	1813	72884872
-514	142	4061	-852	-842	-9081	-52	-32	178	1816	138701	1814	72884875
-520	137	4085	-853	-842	-9071	-39	-13	169	1817	138754	1815	72884909
-517	139	4068	-845	-837	-9096	-39	-13	169	1818	138854	1816	72884909
-500	151	4053	-850	-844	-9056	-42	-8	166	1819	138907	1817	72884911
-497	139	4049	-860	-842	-9067	-42	-8	166	1820	139007	1818	72884912
-513	132	4070	-855	-841	-9103	-32	-6	172	1821	139060	1819	72884914
-488	150	4061	-848	-839	-9074	-32	-6	172	1822	139161	1820	72884915
-509	145	4048	-849	-837	-9053	-38	4	160	1823	139213	1821	72884916
-507	130	4059	-852	-841	-9074	-38	4	160	1824	139313	1822	72884920
-517	136	4093	-850	-848	-9080	-29	-15	171	1825	139366	1823	72884920
-502	138	4062	-851	-843	-9110	-29	-15	171	1826	139466	1824	72884923
-515	132	4059	-856	-846	-9077	-25	9	165	1827	139519	1825	72884956
-501	119	4048	-851	-845	-9082	-25	9	165	1828	139620	1826	72884957
-510	146	4055	-847	-844	-9086	-33	-5	157	1829	139673	1827	72884959
-491	143	4073	-850	-842	-9061	-33	-5	157	1830	139773	1828	72884960
-516	115	4079	-851	-840	-9070	-15	5	157	1831	139826	1829	72884961
-507	157	4066	-846	-839	-9056	-15	5	157	1832	139927	1830	72884964
-512	150	4072	-850	-845	-9070	-16	12	152	1833	139979	1831	72884964
-509	132	4071	-853	-845	-9073	-16	12	152	1834	140079	1832	72884968
-506	143	4085	-850	-845	-9081	-20	-2	156	1835	140132	1833	72884968
-516	141	4066	-854	-844	-9058	-20	-2	156	1836	140232	1834	72884980
-501	127	4036	-854	-847	-9057	-8	10	148	1837	140285	1835	72884981
-501	131	4047	-849	-839	-9076	-8	10	148	1838	140385	1836	72884981
-505	137	4054	-849	-843	-9070	-21	1	147	1839	140438	1837	72885018
-490	130	4045	-851	-844	-9066	-21	1	147	1840	140539	1838	72885019
-520	139	4057	-853	-841	-9077	-8	4	154	1841	140592	1839	72885021
-507	143	4053	-852	-837	-9069	-8	4	154	1842	140692	1840	72885022
-490	131	4073	-856	-838	-9062	-3	17	137	1843	140745	1841	72885024
-508	136	4065	-854	-833	-9089	-3	17	137	1844	140845	1842	72885025
-491	110	4081	-854	-839	-9084	-13	17	145	1845	140898	1843	72885026
-503	136	4054	-849	-841	-9078	-13	17	145	1846	140998	1844	72885030
-522	133	4063	-848	-840	-9065	-3	21	133	1847	141051	1845	72885031
-497	156	4054	-847	-842	-9076	-3	21	133	1848	141151	1846	72885034
-504	145	4088	-851	-842	-9074	-4	14	148	1849	141204	1847	72885068
-496	144	4032	-849	-840	-9084	-4	14	148	1850	141304	1848	72885069
