Accl X	Accl Y	Accl Z	Gyro X	Gyro Y	Gyro Z	Mag X	Mag Y	Mag Z	RPkt#	Rtime	LPkt#	Ltime
-510	173	4058	-848	-845	-9067	-67	-27	159	0	0	0	72368570
-502	129	4062	-858	-849	-9065	-48	-34	170	1	53	1	72368572
-522	143	4070	-836	-839	-9064	-48	-34	170	2	153	2	72368573
-508	152	4046	-841	-846	-9080	-64	-10	160	3	206	3	72368574
-510	134	4075	-857	-847	-9055	-64	-10	160	4	306	4	72368577
-489	116	4089	-855	-842	-9057	-53	-27	169	5	359	5	72368578
-518	150	4073	-841	-843	-9059	-53	-27	169	6	459	6	72368580
-516	164	4033	-844	-841	-9052	-50	-8	164	7	512	7	72368581
-501	120	3991	-861	-841	-9042	-50	-8	164	8	612	8	72368582
-500	120	4044	-861	-839	-9050	-48	-12	166	9	665	9	72368618
-509	162	4065	-845	-841	-9089	-48	-12	166	10	765	10	72368619
-485	159	4091	-851	-845	-9074	-34	-18	174	11	818	11	72368622
-490	119	4088	-862	-844	-9059	-34	-18	174	12	918	12	72368622
-522	106	4046	-851	-841	-9078	-39	3	155	13	971	13	72368625
-511	154	4017	-833	-839	-9044	-39	3	155	14	1071	14	72368627
-491	155	4064	-844	-844	-9054	-39	-13	169	15	1124	15	72368627
-500	124	4096	-852	-841	-9055	-39	-13	169	16	1224	16	72368630
-534	161	4071	-839	-839	-9058	-24	0	162	17	1277	17	72368630
-492	161	4058	-842	-848	-9061	-24	0	162	18	1378	18	72368633
-501	142	4042	-858	-843	-9040	-29	-7	157	19	1430	19	72368667
-513	123	4051	-856	-835	-9056	-29	-7	157	20	1530	20	72368667
-500	131	4074	-848	-843	-9076	-18	-8	162	21	1583	21	72368671
-516	143	4085	-847	-837	-9055	-18	-8	162	22	1683	22	72368671
-501	121	4092	-858	-846	-9059	-15	9	153	23	1736	23	72368674
-509	141	4063	-851	-840	-9065	-15	9	153	24	1836	24	72368677
-499	131	4065	-842	-843	-9059	-21	-3	157	25	1889	25	72368677
-483	129	4025	-850	-845	-9046	-21	-3	157	26	1989	26	72368680
-493	130	4074	-851	-841	-9058	-6	14	144	27	2042	27	72368680
-489	123	4030	-841	-844	-9055	-6	14	144	28	2142	28	72368683
-499	150	4028	-844	-842	-9066	-16	4	154	29	2195	29	72368717
-512	128	4072	-853	-839	-9055	-16	4	154	30	2295	30	72368717
-489	143	4056	-845	-840	-9074	-10	4	152	31	2348	31	72368721
-507	151	4030	-849	-843	-9074	-10	4	152	32	2448	32	72368721
-497	138	4088	-859	-840	-9040	-5	19	143	33	2501	33	72368723
-486	143	4072	-856	-840	-9058	-5	19	143	34	2601	34	72368725
-509	108	4067	-854	-842	-9054	-14	14	146	35	2654	35	72368725
-489	130	4044	-852	-841	-9047	-14	14	146	36	2754	36	72368728
-494	135	4070	-852	-842	-9065	0	26	136	37	2807	37	72368729
-493	134	4079	-847	-840	-9068	0	26	136	38	2907	38	72368740
-498	128	4071	-846	-839	-9070	-12	16	142	39	2960	39	72368740
-505	145	4062	-848	-839	-9078	-12	16	142	40	3060	40	72368743
-508	128	4055	-851	-843	-9052	-4	14	138	41	3113	41	72368775
-479	147	4057	-845	-842	-9065	-4	14	138	42	3214	42	72368775
-491	140	4061	-848	-843	-9061	13	21	137	43	3266	43	72368778
-485	125	4066	-854	-841	-9061	13	21	137	44	3366	44	72368779
-494	113	4085	-853	-841	-9054	1	23	133	45	3419	45	72368781
-504	139	4089	-846	-843	-9066	1	23	133	46	3519	46	72368782
-502	129	4056	-853	-843	-9076	6	32	124	47	3572	47	72368783
-505	123	4056	-856	-838	-9063	6	32	124	48	3672	48	72368789
-483	122	4075	-849	-847	-9059	10	32	136	49	3725	49	72368790
-482	126	4062	-850	-842	-9064	10	32	136	50	3825	50	72368791
-495	116	4066	-852	-838	-9069	14	28	130	51	3878	51	72368823
-490	104	4086	-848	-841	-9071	14	28	130	52	3978	52	72368824
-491	141	4057	-843	-843	-9046	13	35	125	53	4031	53	72368827
-504	130	4060	-848	-844	-9069	13	35	125	54	4131	54	72368827
-490	133	4070	-852	-843	-9044	12	34	124	55	4184	55	72368829
-495	136	4050	-850	-842	-9076	12	34	124	56	4284	56	72368831
-489	128	4048	-851	-844	-9073	17	43	121	57	4337	57	72368831
-499	113	4063	-855	-840	-9059	17	43	121	58	4437	58	72368836
-506	121	4079	-856	-841	-9072	18	38	128	59	4490	59	72368836
-478	125	4051	-852	-845	-9073	18	38	128	60	4590	60	72368839
-489	131	4061	-852	-840	-9053	25	39	125	61	4643	61	72368872
-483	136	4049	-849	-841	-9060	25	39	125	62	4744	62	72368873
-465	133	4050	-851	-845	-9060	30	40	122	63	4796	63	72368877
-495	157	4054	-847	-840	-9072	30	40	122	64	4896	64	72368878
-484	139	4068	-853	-845	-9060	31	47	115	65	4949	65	72368879
-481	127	4049	-853	-845	-9076	31	47	115	66	5049	66	72368880
-473	129	4062	-849	-845	-9082	24	46	110	67	5102	67	72368880
-475	121	4079	-852	-845	-9078	24	46	110	68	5202	68	72368890
-484	142	4088	-855	-843	-9062	22	42	112	69	5255	69	72368890
-484	132	4082	-850	-846	-9070	22	42	112	70	5355	70	72368897
-479	135	4065	-851	-846	-9037	35	43	111	71	5408	71	72368897
-495	124	4055	-852	-846	-9072	35	43	111	72	5508	72	72368901
-481	120	4044	-853	-850	-9063	32	42	110	73	5561	73	72368935
-471	122	4069	-848	-841	-9037	32	42	110	74	5661	74	72368935
-466	124	4074	-847	-841	-9058	32	50	108	75	5714	75	72368940
-477	130	4059	-850	-841	-9060	32	50	108	76	5814	76	72368941
-475	124	4079	-849	-837	-9088	45	49	107	77	5867	77	72368942
-482	154	4052	-848	-839	-9080	45	49	107	78	5967	78	72368943
-496	125	4072	-853	-842	-9068	40	52	106	79	6020	79	72368944
-496	125	4075	-853	-843	-9069	40	52	106	80	6120	80	72368950
-483	136	4031	-848	-846	-9068	39	49	103	81	6173	81	72368950
-492	138	4051	-853	-841	-9080	39	49	103	82	6273	82	72368951
-477	130	4064	-852	-848	-9077	43	53	109	83	6326	83	72368984
-488	129	4031	-851	-844	-9067	43	53	109	84	6426	84	72368984
-471	147	4079	-848	-835	-9078	42	54	106	85	6479	85	72368987
-458	133	4045	-854	-846	-9053	42	54	106	86	6579	86	72368987
-484	133	4073	-850	-846	-9064	45	55	105	87	6632	87	72368990
-476	154	4062	-845	-841	-9062	45	55	105	88	6732	88	72368991
-468	136	4040	-853	-842	-9051	38	52	100	89	6785	89	72368991
-482	119	4053	-856	-842	-9070	38	52	100	90	6885	90	72368994
-467	132	4051	-843	-835	-9100	48	52	102	91	6938	91	72368995
-465	139	4077	-849	-840	-9040	48	52	102	92	7038	92	72369031
-464	126	4087	-850	-843	-9066	57	59	109	93	7091	93	72369031
-471	138	4070	-848	-846	-9068	57	59	109	94	7191	94	72369031
-466	145	4044	-844	-842	-9042	59	55	111	95	7244	95	72369034
-475	149	4057	-849	-840	-9073	59	55	111	96	7344	96	72369035
-463	136	4069	-853	-843	-9049	67	55	105	97	7397	97	72369038
-489	118	4046	-850	-844	-9067	67	55	105	98	7497	98	72369038
-446	138	4046	-847	-841	-9076	67	61	115	99	7550	99	72369042
-476	148	4047	-851	-838	-9089	67	61	115	100	7650	100	72369043
-501	130	4087	-850	-839	-9088	74	54	112	101	7703	101	72369043
-473	138	4065	-847	-837	-9063	74	54	112	102	7803	102	72369056
-489	150	4049	-850	-841	-9057	75	51	113	103	7856	103	72369057
-488	136	4071	-853	-841	-9073	75	51	113	104	7956	104	72369060
-458	151	4042	-849	-839	-9061	76	48	122	105	8009	105	72369093
-491	133	4063	-849	-839	-9091	76	48	122	106	8109	106	72369093
-463	145	4065	-854	-846	-9044	91	51	125	107	8162	107	72369096
-460	130	4068	-849	-844	-9060	91	51	125	108	8262	108	72369097
-471	163	4059	-845	-838	-9052	90	52	122	109	8315	109	72369099
-477	145	4068	-858	-842	-9071	90	52	122	110	8415	110	72369100
-467	132	4098	-852	-842	-9078	94	40	120	111	8468	111	72369100
-462	150	4069	-845	-839	-9088	94	40	120	112	8568	112	72369104
-453	136	4047	-852	-840	-9072	101	37	127	113	8621	113	72369104
-476	123	4049	-851	-840	-9057	101	37	127	114	8721	114	72369107
-469	153	4061	-848	-838	-9071	105	31	127	115	8774	115	72369140
-483	141	4052	-847	-839	-9068	105	31	127	116	8874	116	72369141
-470	149	4057	-851	-845	-9074	99	27	133	117	8927	117	72369144
-464	158	4039	-848	-846	-9065	99	27	133	118	9027	118	72369145
-484	156	4054	-846	-842	-9054	114	24	130	119	9080	119	72369146
-472	144	4078	-853	-845	-9052	114	24	130	120	9180	120	72369148
-477	116	4053	-851	-842	-9064	108	14	134	121	9233	121	72369151
-455	153	4073	-842	-841	-9076	108	14	134	122	9333	122	72369152
-456	147	4062	-851	-845	-9071	105	9	129	123	9386	123	72369153
-485	141	4039	-855	-846	-9063	105	9	129	124	9487	124	72369188
-463	166	4062	-850	-844	-9067	109	-7	133	125	9539	125	72369189
-466	156	4072	-843	-839	-9071	109	-7	133	126	9639	126	72369190
-470	165	4045	-849	-840	-9041	108	-8	138	127	9692	127	72369192
-474	145	4057	-857	-847	-9044	108	-8	138	128	9792	128	72369192
-474	157	4052	-845	-843	-9064	107	-13	127	129	9845	129	72369195
-469	158	4036	-843	-839	-9067	107	-13	127	130	9945	130	72369195
-467	141	4056	-853	-846	-9065	104	-18	132	131	9998	131	72369198
-473	170	4062	-846	-842	-9048	104	-18	132	132	10098	132	72369204
-464	156	4048	-842	-843	-9053	105	-25	139	133	10151	133	72369204
-475	149	4058	-854	-838	-9049	105	-25	139	134	10251	134	72369214
-469	139	4049	-849	-841	-9052	109	-37	139	135	10304	135	72369214
-466	159	4075	-846	-842	-9053	109	-37	139	136	10404	136	72369218
-460	143	4075	-849	-837	-9047	103	-35	141	137	10457	137	72369251
-460	134	4051	-852	-842	-9053	103	-35	141	138	10557	138	72369251
-471	167	4057	-847	-844	-9064	95	-37	147	139	10610	139	72369257
-455	170	4049	-847	-843	-9045	95	-37	147	140	10710	140	72369258
-469	149	4070	-849	-841	-9069	93	-41	139	141	10763	141	72369260
-484	156	4081	-848	-840	-9062	93	-41	139	142	10863	142	72369261
-450	148	4056	-842	-840	-9078	91	-43	137	143	10916	143	72369262
-467	148	4070	-852	-845	-9077	91	-43	137	144	11016	144	72369266
-475	165	4071	-850	-841	-9061	88	-48	142	145	11069	145	72369272
-467	172	4048	-845	-846	-9065	88	-48	142	146	11169	146	72369275
-464	181	4061	-850	-847	-9072	87	-51	147	147	11222	147	72369280
-476	165	4066	-855	-845	-9069	87	-51	147	148	11322	148	72369281
-474	171	4073	-848	-837	-9076	90	-56	144	149	11375	149	72369313
-462	158	4067	-847	-839	-9067	90	-56	144	150	11475	150	72369313
-460	159	4064	-855	-842	-9062	82	-56	152	151	11528	151	72369315
-475	138	4054	-857	-839	-9042	82	-56	152	152	11628	152	72369316
-484	163	4053	-844	-840	-9055	76	-52	144	153	11681	153	72369317
-463	161	4042	-847	-845	-9079	76	-52	144	154	11781	154	72369320
-475	152	4042	-851	-841	-9057	73	-61	141	155	11834	155	72369320
-479	166	4085	-848	-840	-9062	73	-61	141	156	11934	156	72369323
-469	170	4027	-844	-843	-9051	70	-62	144	157	11987	157	72369324
-482	164	4058	-853	-839	-9061	70	-62	144	158	12087	158	72369327
-461	147	4077	-855	-838	-9031	73	-67	147	159	12140	159	72369360
-470	157	4079	-845	-838	-9064	73	-67	147	160	12241	160	72369363
-474	168	4054	-847	-842	-9068	66	-68	150	161	12293	161	72369364
-478	166	4038	-855	-845	-9060	66	-68	150	162	12394	162	72369364
-475	169	4066	-850	-840	-9076	62	-66	146	163	12446	163	72369366
-460	176	4066	-843	-842	-9069	62	-66	146	164	12546	164	72369367
-468	164	4050	-853	-842	-9061	65	-69	151	165	12599	165	72369368
-498	165	4044	-853	-839	-9058	65	-69	151	166	12699	166	72369371
-484	175	4037	-847	-845	-9072	55	-71	157	167	12752	167	72369372
-485	180	4060	-849	-837	-9059	55	-71	157	168	12852	168	72369375
-495	158	4070	-849	-839	-9043	50	-76	160	169	12905	169	72369415
-480	173	4063	-848	-841	-9040	50	-76	160	170	13005	170	72369416
-491	171	4075	-845	-838	-9059	53	-77	155	171	13058	171	72369419
-474	184	4063	-852	-842	-9045	53	-77	155	172	13158	172	72369419
-469	172	4077	-851	-838	-9075	52	-68	150	173	13211	173	72369421
-484	183	4052	-844	-840	-9071	52	-68	150	174	13311	174	72369423
-475	147	4066	-850	-844	-9048	53	-75	157	175	13364	175	72369423
-493	150	4078	-849	-841	-9055	53	-75	157	176	13464	176	72369429
-489	165	4053	-845	-845	-9072	48	-78	154	177	13517	177	72369429
-480	178	4037	-848	-845	-9086	48	-78	154	178	13617	178	72369431
-512	169	4053	-852	-841	-9062	50	-82	156	179	13670	179	72369439
-474	186	4055	-847	-839	-9068	50	-82	156	180	13770	180	72369439
-465	183	4048	-846	-837	-9064	50	-82	162	181	13823	181	72369446
-492	140	4078	-850	-841	-9070	50	-82	162	182	13923	182	72369447
-489	161	4078	-854	-846	-9070	40	-82	162	183	13976	183	72369449
-485	162	4082	-850	-840	-9065	40	-82	162	184	14076	184	72369481
-476	170	4033	-848	-845	-9071	34	-78	154	185	14129	185	72369482
-482	165	4052	-851	-842	-9069	34	-78	154	186	14229	186	72369485
-492	167	4071	-849	-838	-9045	36	-80	158	187	14282	187	72369486
-470	176	4074	-847	-847	-9080	36	-80	158	188	14382	188	72369489
-491	178	4050	-852	-842	-9052	36	-78	148	189	14435	189	72369489
-481	155	4054	-855	-838	-9042	36	-78	148	190	14535	190	72369490
-483	155	4044	-855	-840	-9076	30	-82	156	191	14588	191	72369496
-489	177	4054	-846	-843	-9072	30	-82	156	192	14688	192	72369497
-470	163	4055	-850	-843	-9051	35	-89	155	193	14741	193	72369506
-498	170	4056	-853	-839	-9076	35	-89	155	194	14841	194	72369506
-481	173	4060	-844	-840	-9061	23	-87	159	195	14894	195	72369510
-488	184	4084	-846	-846	-9048	23	-87	159	196	14994	196	72369544
-508	177	4060	-850	-841	-9049	23	-83	161	197	15047	197	72369546
-491	179	4048	-852	-843	-9057	23	-83	161	198	15147	198	72369549
-471	165	4037	-852	-842	-9055	22	-86	154	199	15200	199	72369550
-496	157	4072	-849	-841	-9052	22	-86	154	200	15300	200	72369551
-498	159	4063	-847	-845	-9049	21	-83	151	201	15353	201	72369551
-494	153	4082	-850	-845	-9063	21	-83	151	202	15453	202	72369551
-505	174	4042	-848	-843	-9050	14	-78	144	203	15506	203	72369555
-489	169	4032	-850	-840	-9049	14	-78	144	204	15606	204	72369555
-496	175	4064	-849	-842	-9070	16	-84	154	205	15659	205	72369559
-509	180	4084	-851	-844	-9091	16	-84	154	206	15759	206	72369592
-488	166	4084	-851	-844	-9072	6	-88	152	207	15812	207	72369593
-484	166	4047	-847	-839	-9062	6	-88	152	208	15912	208	72369596
-485	173	4032	-850	-845	-9074	5	-85	151	209	15965	209	72369596
-507	159	4053	-853	-840	-9060	5	-85	151	210	16066	210	72369599
-492	167	4069	-851	-841	-9056	8	-84	146	211	16118	211	72369600
-501	171	4058	-846	-842	-9078	8	-84	146	212	16218	212	72369600
-505	171	4089	-854	-842	-9055	2	-84	146	213	16271	213	72369603
-508	150	4062	-854	-840	-9058	2	-84	146	214	16371	214	72369604
-496	176	4064	-845	-838	-9050	-1	-85	149	215	16424	215	72369614
-492	174	4037	-841	-840	-9078	-1	-85	149	216	16524	216	72369615
-498	156	4026	-853	-840	-9059	2	-82	144	217	16577	217	72369618
-503	165	4069	-850	-840	-9065	2	-82	144	218	16677	218	72369651
-493	182	4059	-845	-842	-9083	-8	-82	144	219	16730	219	72369651
-497	163	4068	-850	-845	-9074	-8	-82	144	220	16830	220	72369654
-509	141	4046	-860	-841	-9050	-11	-81	143	221	16883	221	72369655
-497	145	4071	-849	-844	-9055	-11	-81	143	222	16983	222	72369657
-497	161	4064	-842	-840	-9076	-14	-74	138	223	17036	223	72369658
-519	175	4076	-852	-849	-9063	-14	-74	138	224	17136	224	72369659
-512	157	4069	-851	-846	-9025	-20	-78	136	225	17189	225	72369662
-511	179	4058	-844	-839	-9041	-20	-78	136	226	17289	226	72369662
-509	166	4065	-848	-847	-9058	-17	-77	141	227	17342	227	72369667
-498	150	4039	-854	-844	-9057	-17	-77	141	228	17442	228	72369698
-500	170	4058	-851	-840	-9043	-27	-77	141	229	17495	229	72369699
-489	151	4069	-847	-846	-9059	-27	-77	141	230	17595	230	72369702
-509	163	4078	-851	-842	-9060	-32	-72	142	231	17648	231	72369702
-516	174	4087	-851	-844	-9064	-32	-72	142	232	17748	232	72369704
-512	157	4067	-850	-844	-9084	-35	-75	137	233	17801	233	72369706
-505	168	4037	-851	-842	-9067	-35	-75	137	234	17901	234	72369706
-502	163	4070	-855	-842	-9052	-37	-59	135	235	17954	235	72369713
-502	142	4069	-851	-837	-9057	-37	-59	135	236	18054	236	72369714
-505	159	4048	-851	-846	-9092	-31	-71	149	237	18107	237	72369748
-509	140	4062	-854	-841	-9063	-31	-71	149	238	18207	238	72369752
-514	151	4067	-847	-836	-9053	-49	-63	139	239	18260	239	72369753
-487	172	4071	-843	-842	-9061	-49	-63	139	240	18361	240	72369754
-522	171	4077	-854	-843	-9078	-45	-61	141	241	18413	241	72369754
-516	146	4069	-856	-839	-9051	-45	-61	141	242	18513	242	72369756
-496	173	4071	-847	-841	-9058	-45	-57	141	243	18566	243	72369757
-517	170	4072	-847	-842	-9072	-45	-57	141	244	18666	244	72369762
-500	158	4086	-853	-839	-9065	-52	-46	142	245	18719	245	72369764
-509	163	4086	-847	-842	-9053	-52	-46	142	246	18819	246	72369764
-501	163	4054	-840	-843	-9077	-48	-58	148	247	18872	247	72369774
-502	173	4036	-850	-846	-9056	-48	-58	148	248	18972	248	72369774
-495	140	4071	-851	-843	-9078	-59	-51	147	249	19025	249	72369776
-514	158	4057	-842	-842	-9071	-59	-51	147	250	19125	250	72369810
-509	156	4058	-845	-840	-9040	-58	-52	148	251	19178	251	72369811
-508	147	4062	-853	-839	-9056	-58	-52	148	252	19278	252	72369814
-511	151	4059	-849	-839	-9067	-65	-39	155	253	19331	253	72369814
-501	147	4063	-845	-839	-9053	-65	-39	155	254	19431	254	72369817
-511	161	4083	-850	-842	-9064	-65	-33	147	255	19484	255	72369818
-501	142	4074	-852	-839	-9038	-65	-33	147	256	19584	256	72369818
-515	148	4048	-848	-840	-9080	-62	-40	154	257	19637	257	72369821
-512	166	4054	-853	-846	-9076	-62	-40	154	258	19737	258	72369822
-496	132	4085	-855	-841	-9058	-65	-19	153	259	19790	259	72369824
-520	137	4055	-849	-841	-9056	-65	-19	153	260	19890	260	72369858
-487	154	4038	-847	-847	-9083	-57	-33	169	261	19943	261	72369858
-516	136	4034	-848	-841	-9063	-57	-33	169	262	20043	262	72369861
-516	147	4049	-851	-845	-9071	-53	-17	165	263	20096	263	72369861
-513	142	4076	-847	-844	-9059	-53	-17	165	264	20197	264	72369868
-511	145	4046	-848	-838	-9071	-64	-20	164	265	20249	265	72369871
-503	145	4066	-854	-840	-9056	-64	-20	164	266	20349	266	72369872
-517	153	4066	-850	-843	-9046	-42	-22	170	267	20402	267	72369872
-503	146	4074	-850	-844	-9044	-42	-22	170	268	20502	268	72369873
-526	139	4066	-850	-842	-9068	-52	6	162	269	20555	269	72369882
-522	146	4060	-847	-842	-9073	-52	6	162	270	20655	270	72369883
-491	140	4066	-850	-848	-9042	-37	-21	169	271	20708	271	72369885
-499	134	4045	-853	-844	-9055	-37	-21	169	272	20808	272	72369917
-514	152	4060	-851	-838	-9063	-36	-2	164	273	20861	273	72369918
-484	167	4058	-846	-844	-9069	-36	-2	164	274	20961	274	72369921
-507	142	4079	-850	-841	-9054	-43	-5	161	275	21014	275	72369921
-502	120	4072	-852	-843	-9055	-43	-5	161	276	21114	276	72369923
-504	130	4062	-848	-844	-9029	-27	-7	165	277	21167	277	72369925
-506	154	4072	-849	-843	-9054	-27	-7	165	278	21267	278	72369925
-508	160	4068	-850	-842	-9063	-24	10	158	279	21320	279	72369930
-515	148	4049	-849	-839	-9037	-24	10	158	280	21420	280	72369930
-506	164	4075	-847	-838	-9038	-24	-12	172	281	21473	281	72369933
-487	148	4062	-851	-844	-9057	-24	-12	172	282	21573	282	72369969
-511	140	4060	-855	-840	-9058	-10	10	150	283	21626	283	72369969
-502	139	4079	-847	-843	-9027	-10	10	150	284	21726	284	72369972
-497	142	4051	-847	-846	-9031	-22	-4	152	285	21779	285	72369972
-501	119	4077	-845	-836	-9070	-22	-4	152	286	21879	286	72369975
-508	129	4055	-847	-838	-9030	-12	2	156	287	21932	287	72369976
-479	138	4038	-847	-841	-9041	-12	2	156	288	22032	288	72369976
-514	135	4051	-848	-838	-9059	-13	13	147	289	22085	289	72369979
-485	118	4058	-851	-836	-9037	-13	13	147	290	22185	290	72369980
-511	118	4073	-849	-841	-9050	-12	0	160	291	22238	291	72369982
-494	136	4065	-848	-845	-9046	-12	0	160	292	22338	292	72370015
-504	133	4075	-851	-842	-9058	-5	15	141	293	22391	293	72370015
-496	110	4062	-851	-844	-9070	-5	15	141	294	22491	294	72370019
-482	135	4092	-845	-846	-9041	-15	17	147	295	22544	295	72370019
-512	143	4058	-849	-846	-9074	-15	17	147	296	22644	296	72370023
-497	129	4037	-850	-843	-9067	-7	19	143	297	22697	297	72370024
-485	128	4043	-848	-846	-9048	-7	19	143	298	22797	298	72370027
-497	134	4074	-855	-843	-9047	-3	19	139	299	22850	299	72370028
-495	117	4049	-852	-839	-9067	-3	19	139	300	22950	300	72370029
-508	120	4068	-845	-839	-9056	-8	18	142	301	23003	301	72370058
-490	131	4055	-840	-840	-9038	-8	18	142	302	23103	302	72370058
-476	139	4046	-848	-839	-9067	7	25	133	303	23156	303	72370060
-512	142	4069	-852	-837	-9054	7	25	133	304	23256	304	72370061
-502	140	4052	-845	-847	-9038	1	23	137	305	23309	305	72370061
-490	131	4057	-851	-845	-9045	1	23	137	306	23409	306	72370065
-496	122	4076	-854	-840	-9076	7	29	137	307	23462	307	72370065
-479	127	4074	-850	-844	-9058	7	29	137	308	23562	308	72370068
-489	125	4060	-848	-840	-9048	13	23	137	309	23615	309	72370103
-511	123	4073	-852	-844	-9073	13	23	137	310	23715	310	72370103
-482	122	4036	-849	-841	-9059	6	24	136	311	23768	311	72370106
-498	138	4061	-850	-835	-9049	6	24	136	312	23869	312	72370106
-487	138	4047	-850	-844	-9030	15	39	127	313	23921	313	72370108
-491	125	4038	-852	-841	-9057	15	39	127	314	24021	314	72370110
-501	113	4073	-849	-837	-9062	16	34	132	315	24074	315	72370110
-492	124	4075	-844	-844	-9042	16	34	132	316	24175	316	72370114
-493	138	4082	-847	-838	-9070	15	31	117	317	24227	317	72370114
-503	128	4078	-849	-844	-9047	15	31	117	318	24327	318	72370125
-493	134	4065	-847	-844	-9036	21	35	123	319	24380	319	72370125
-489	147	4043	-844	-841	-9059	21	35	123	320	24480	320	72370128
-494	144	4034	-852	-844	-9078	18	36	126	321	24533	321	72370161
-495	118	4070	-857	-846	-9070	18	36	126	322	24633	322	72370162
-493	124	4063	-849	-842	-9081	21	37	119	323	24686	323	72370165
-488	127	4061	-846	-845	-9084	21	37	119	324	24786	324	72370165
-478	132	4080	-852	-843	-9072	26	42	120	325	24839	325	72370167
-481	139	4054	-849	-845	-9076	26	42	120	326	24939	326	72370168
-486	144	4079	-851	-840	-9058	28	46	110	327	24992	327	72370169
-494	126	4054	-850	-838	-9048	28	46	110	328	25092	328	72370174
-484	128	4041	-851	-843	-9088	29	39	113	329	25145	329	72370175
-482	132	4065	-850	-840	-9061	29	39	113	330	25245	330	72370177
-471	130	4065	-849	-842	-9073	30	44	110	331	25298	331	72370211
-492	118	4051	-852	-843	-9078	30	44	110	332	25398	332	72370212
-494	139	4045	-849	-843	-9056	32	46	114	333	25451	333	72370214
-465	129	4047	-851	-845	-9079	32	46	114	334	25551	334	72370214
-487	143	4054	-851	-838	-9068	33	45	109	335	25604	335	72370216
-482	138	4075	-850	-837	-9036	33	45	109	336	25704	336	72370221
-492	134	4076	-848	-845	-9058	36	46	104	337	25757	337	72370222
-484	117	4046	-854	-838	-9067	36	46	104	338	25857	338	72370222
-475	109	4035	-850	-842	-9046	36	42	110	339	25910	339	72370229
-464	126	4065	-845	-843	-9070	36	42	110	340	26010	340	72370231
-505	133	4076	-850	-840	-9075	39	53	113	341	26063	341	72370260
-473	132	4065	-852	-844	-9077	39	53	113	342	26164	342	72370260
-484	144	4077	-848	-845	-9065	37	53	105	343	26217	343	72370263
-489	146	4044	-846	-844	-9068	37	53	105	344	26317	344	72370264
-476	130	4065	-854	-844	-9057	44	56	104	345	26370	345	72370266
-468	120	4071	-850	-838	-9058	44	56	104	346	26470	346	72370269
-483	129	4057	-848	-843	-9068	45	57	97	347	26523	347	72370270
-470	159	4072	-852	-839	-9061	45	57	97	348	26623	348	72370271
-466	145	4060	-851	-839	-9066	46	58	104	349	26676	349	72370272
-454	138	4055	-849	-845	-9055	46	58	104	350	26776	350	72370306
-471	134	4072	-850	-842	-9061	47	57	109	351	26829	351	72370306
-476	131	4034	-847	-842	-9065	47	57	109	352	26929	352	72370307
-468	122	4069	-851	-845	-9061	53	55	107	353	26982	353	72370310
-476	130	4072	-848	-844	-9058	53	55	107	354	27082	354	72370310
-472	133	4059	-842	-837	-9079	58	56	110	355	27135	355	72370313
-473	147	4062	-849	-838	-9077	58	56	110	356	27235	356	72370314
-463	141	4058	-851	-842	-9065	58	58	104	357	27288	357	72370316
-454	130	4062	-850	-844	-9053	58	58	104	358	27388	358	72370321
-484	119	4085	-849	-842	-9066	61	57	117	359	27441	359	72370322
-465	144	4066	-850	-845	-9097	61	57	117	360	27541	360	72370358
-480	130	4050	-852	-849	-9059	68	52	120	361	27594	361	72370359
-477	131	4046	-849	-842	-9048	68	52	120	362	27694	362	72370365
-476	125	4074	-849	-842	-9089	78	54	120	363	27747	363	72370366
-478	140	4053	-848	-840	-9060	78	54	120	364	27847	364	72370369
-457	136	4055	-849	-836	-9066	82	56	118	365	27900	365	72370369
-467	138	4057	-846	-844	-9054	82	50	118	367	27922	366	72370370
-482	147	4064	-847	-846	-9050	82	50	118	368	28022	367	72370370
-472	135	4072	-853	-838	-9050	86	48	122	369	28075	368	72370370
-463	136	4067	-848	-841	-9077	86	48	122	370	28175	369	72370403
-462	138	4079	-849	-846	-9065	90	38	130	371	28228	370	72370404
-466	144	4072	-849	-837	-9065	90	38	130	372	28328	371	72370406
-460	149	4049	-852	-843	-9059	101	41	123	373	28381	372	72370408
-467	136	4052	-853	-842	-9072	101	41	123	374	28481	373	72370409
-467	157	4069	-847	-843	-9052	103	37	123	375	28534	374	72370411
-460	143	4050	-849	-841	-9063	103	37	123	376	28634	375	72370412
-463	144	4041	-850	-844	-9052	106	30	124	377	28687	376	72370416
-484	145	4062	-844	-841	-9039	106	30	124	378	28787	377	72370416
-465	151	4069	-848	-841	-9049	112	26	132	379	28840	378	72370419
-486	154	4045	-847	-841	-9078	112	26	132	380	28940	379	72370452
-467	140	4068	-850	-843	-9084	108	12	132	381	28993	380	72370453
-490	152	4053	-848	-843	-9055	108	12	132	382	29093	381	72370456
-485	154	4044	-849	-843	-9046	116	10	132	383	29146	382	72370456
-445	156	4036	-851	-845	-9077	116	10	132	384	29247	383	72370459
-465	144	4062	-851	-837	-9082	110	6	130	385	29299	384	72370460
-461	153	4082	-848	-844	-9066	110	6	130	386	29399	385	72370460
-476	165	4079	-845	-844	-9062	109	-1	129	387	29452	386	72370465
-465	153	4048	-849	-846	-9055	109	-1	129	388	29552	387	72370465
-477	165	4056	-851	-841	-9069	111	-11	137	389	29605	388	72370469
-472	162	4070	-846	-836	-9056	111	-11	137	390	29705	389	72370501
-481	158	4057	-850	-842	-9062	107	-13	135	391	29758	390	72370502
-457	147	4053	-849	-844	-9039	107	-13	135	392	29858	391	72370509
-474	145	4062	-850	-837	-9063	106	-22	140	393	29911	392	72370509
-460	151	4030	-845	-841	-9066	106	-22	140	394	30011	393	72370511
-471	180	4080	-848	-844	-9054	102	-30	134	395	30064	394	72370512
-469	161	4050	-848	-836	-9051	102	-30	134	396	30165	395	72370513
-479	174	4041	-848	-844	-9053	109	-33	137	397	30217	396	72370516
-469	157	4049	-847	-840	-9061	109	-33	137	398	30318	397	72370516
-471	162	4060	-849	-843	-9044	97	-29	141	399	30370	398	72370519
-447	149	4061	-850	-842	-9037	97	-29	141	400	30470	399	72370551
-457	156	4055	-847	-838	-9058	105	-39	141	401	30523	400	72370552
-462	150	4041	-849	-842	-9069	105	-39	141	402	30623	401	72370555
-459	125	4078	-848	-835	-9056	92	-38	140	403	30676	402	72370555
-438	152	4053	-842	-836	-9048	92	-38	140	404	30776	403	72370559
-455	158	4052	-850	-845	-9064	91	-47	143	405	30829	404	72370559
-477	157	4052	-845	-840	-9059	91	-47	143	406	30929	405	72370560
-488	170	4078	-850	-841	-9036	89	-49	147	407	30982	406	72370562
-485	172	4050	-847	-842	-9063	89	-49	147	408	31083	407	72370563
-472	166	4050	-851	-843	-9043	89	-47	149	409	31135	408	72370598
-452	165	4060	-850	-844	-9050	89	-47	149	410	31235	409	72370599
-471	177	4052	-845	-841	-9079	84	-58	148	411	31288	410	72370599
-473	170	4041	-846	-842	-9072	84	-58	148	412	31388	411	72370601
-460	179	4049	-853	-835	-9077	83	-55	145	413	31441	412	72370601
-471	159	4054	-849	-841	-9073	83	-55	145	414	31541	413	72370605
-459	157	4035	-847	-843	-9046	73	-57	143	415	31594	414	72370605
-471	158	4051	-850	-836	-9033	73	-57	143	416	31694	415	72370608
-475	168	4074	-848	-841	-9039	72	-60	144	417	31747	416	72370614
-454	158	4050	-845	-845	-9066	72	-60	144	418	31847	417	72370614
-469	174	4046	-846	-843	-9052	75	-61	155	419	31900	418	72370649
-470	172	4062	-850	-838	-9060	75	-61	155	420	32000	419	72370649
-462	165	4087	-848	-839	-9057	70	-68	144	421	32053	420	72370651
-475	175	4081	-843	-840	-9076	70	-68	144	422	32153	421	72370652
-476	177	4080	-851	-845	-9066	67	-65	153	423	32206	422	72370653
-484	153	4075	-852	-836	-9071	67	-65	153	424	32306	423	72370656
-495	160	4054	-851	-841	-9058	71	-65	149	425	32359	424	72370657
-473	171	4047	-847	-851	-9055	71	-65	149	426	32459	425	72370659
-482	168	4026	-853	-847	-9046	62	-72	148	427	32512	426	72370661
-475	165	4037	-850	-844	-9052	62	-72	148	428	32612	427	72370662
-503	163	4067	-845	-840	-9048	64	-72	156	429	32665	428	72370695
-489	163	4074	-850	-840	-9052	64	-72	156	430	32765	429	72370695
-473	153	4071	-852	-841	-9056	58	-74	152	431	32818	430	72370697
-485	173	4039	-847	-842	-9053	58	-74	152	432	32919	431	72370700
-473	193	4064	-850	-843	-9082	52	-70	152	433	32971	432	72370700
-458	179	4054	-849	-840	-9046	52	-70	152	434	33071	433	72370703
-482	178	4055	-852	-841	-9073	54	-74	152	435	33124	434	72370704
-470	193	4064	-851	-843	-9063	54	-74	152	436	33224	435	72370706
-498	180	4056	-850	-838	-9032	52	-80	152	437	33277	436	72370712
-494	168	4049	-851	-840	-9040	52	-80	152	438	33377	437	72370713
-483	148	4052	-852	-846	-9071	48	-76	156	439	33430	438	72370722
-473	165	4074	-849	-841	-9082	48	-76	156	440	33530	439	72370723
-469	176	4070	-850	-843	-9038	40	-78	156	441	33583	440	72370725
-467	189	4046	-851	-837	-9055	40	-78	156	442	33683	441	72370734
-496	173	4054	-846	-837	-9093	41	-85	161	443	33736	442	72370734
-500	171	4048	-850	-843	-9042	41	-85	161	444	33836	443	72370769
-490	178	4066	-848	-836	-9051	43	-79	155	445	33889	444	72370770
-466	159	4035	-850	-844	-9072	43	-79	155	446	33989	445	72370772
-495	145	4064	-853	-845	-9068	39	-79	157	447	34042	446	72370773
-493	159	4075	-852	-841	-9062	39	-79	157	448	34142	447	72370775
-481	175	4049	-847	-845	-9053	37	-83	153	449	34195	448	72370776
-490	158	4056	-848	-839	-9087	37	-83	153	450	34295	449	72370776
-492	170	4051	-851	-839	-9084	32	-84	148	451	34348	450	72370781
-474	181	4069	-848	-842	-9068	32	-84	148	452	34448	451	72370781
-490	151	4057	-851	-839	-9055	27	-77	155	453	34501	452	72370784
-493	142	4055	-851	-842	-9064	27	-77	155	454	34601	453	72370822
-480	167	4080	-847	-839	-9065	24	-82	152	455	34654	454	72370824
-491	169	4061	-848	-842	-9068	24	-82	152	456	34754	455	72370825
-488	173	4057	-853	-843	-9072	25	-81	153	457	34807	456	72370829
-494	173	4053	-855	-843	-9082	25	-81	153	458	34907	457	72370829
-490	169	4064	-848	-844	-9064	24	-82	148	459	34960	458	72370829
-495	174	4053	-847	-848	-9064	24	-82	148	460	35061	459	72370830
-479	165	4043	-855	-839	-9054	17	-79	145	461	35114	460	72370830
-484	143	4067	-855	-843	-9069	17	-79	145	462	35214	461	72370830
-499	170	4067	-848	-841	-9054	17	-81	153	463	35267	462	72370833
-480	162	4026	-845	-841	-9068	17	-81	153	464	35367	463	72370867
-492	164	4044	-854	-838	-9082	16	-88	150	465	35420	464	72370867
-503	158	4077	-851	-839	-9060	16	-88	150	466	35520	465	72370869
-500	180	4080	-846	-844	-9048	11	-81	151	467	35573	466	72370870
-491	196	4063	-848	-838	-9053	11	-81	151	468	35673	467	72370873
-500	169	4040	-857	-837	-9083	13	-83	149	469	35726	468	72370875
-517	160	4055	-855	-844	-9067	13	-83	149	470	35827	469	72370878
-502	155	4067	-848	-845	-9071	1	-85	145	471	35879	470	72370881
-495	179	4079	-848	-844	-9054	1	-85	145	472	35979	471	72370881
-495	166	4051	-854	-846	-9055	4	-88	150	473	36032	472	72370891
-504	165	4070	-854	-839	-9059	4	-88	150	474	36132	473	72370891
-488	180	4044	-851	-847	-9062	2	-82	146	475	36185	474	72370894
-509	194	4068	-851	-841	-9070	2	-82	146	476	36285	475	72370929
-514	139	4077	-849	-842	-9089	-6	-84	146	477	36338	476	72370930
-496	184	4076	-854	-840	-9075	-6	-84	146	478	36438	477	72370932
-504	172	4060	-848	-836	-9064	-2	-84	142	479	36491	478	72370933
-502	166	4039	-847	-843	-9062	-2	-84	142	480	36592	479	72370935
-521	173	4033	-851	-842	-9064	-14	-78	148	481	36644	480	72370938
-516	177	4043	-856	-836	-9070	-14	-78	148	482	36744	481	72370940
-490	171	4079	-856	-844	-9065	-14	-76	140	483	36797	482	72370941
-522	154	4074	-852	-842	-9056	-14	-76	140	484	36898	483	72370942
-501	156	4050	-849	-842	-9080	-12	-84	144	485	36951	484	72370944
-503	151	4047	-855	-848	-9065	-12	-84	144	486	37051	485	72370977
-508	153	4075	-846	-843	-9057	-21	-73	147	487	37104	486	72370978
-494	176	4038	-841	-840	-9088	-21	-73	147	488	37204	487	72370983
-493	176	4070	-852	-840	-9074	-22	-76	138	489	37257	488	72370984
-513	167	4060	-849	-840	-9057	-22	-76	138	490	37358	489	72370986
-506	166	4040	-845	-844	-9067	-23	-67	131	491	37410	490	72370987
-518	167	4037	-854	-837	-9072	-23	-67	131	492	37510	491	72370987
-511	158	4035	-856	-837	-9060	-27	-71	145	493	37563	492	72370994
-493	138	4058	-848	-841	-9068	-27	-71	145	494	37663	493	72370994
-502	156	4022	-847	-835	-9055	-33	-71	141	495	37716	494	72371001
-507	162	4077	-854	-844	-9052	-33	-71	141	496	37817	495	72371001
-498	157	4072	-852	-845	-9055	-34	-70	146	497	37870	496	72371004
-508	168	4056	-844	-846	-9055	-34	-70	146	498	37970	497	72371036
-515	168	4043	-849	-844	-9063	-34	-74	142	499	38023	498	72371037
-514	148	4070	-853	-846	-9063	-34	-74	142	500	38123	499	72371040
-499	154	4075	-847	-845	-9071	-40	-58	138	501	38176	500	72371040
-510	170	4061	-846	-836	-9050	-40	-58	138	502	38276	501	72371042
-510	144	4064	-853	-844	-9059	-44	-62	140	503	38329	502	72371043
-507	174	4034	-851	-848	-9057	-44	-62	140	504	38429	503	72371044
-497	183	4044	-849	-842	-9071	-54	-58	138	505	38482	504	72371048
-503	157	4046	-852	-841	-9060	-54	-58	138	506	38582	505	72371049
-503	142	4054	-855	-842	-9069	-49	-57	149	507	38635	506	72371052
-513	150	4075	-851	-841	-9070	-49	-57	149	508	38735	507	72371085
-492	150	4063	-852	-844	-9063	-53	-47	147	509	38788	508	72371094
-518	146	4077	-852	-838	-9066	-53	-47	147	510	38888	509	72371094
-517	149	4071	-845	-847	-9060	-57	-47	143	511	38941	510	72371095
-515	167	4031	-840	-845	-9068	-57	-47	143	512	39041	511	72371096
-525	148	4032	-853	-834	-9060	-58	-56	148	513	39094	512	72371098
-514	146	4071	-851	-840	-9083	-58	-56	148	514	39194	513	72371098
-498	172	4049	-848	-842	-9058	-65	-33	143	515	39247	514	72371098
-512	141	4076	-853	-838	-9065	-65	-33	143	516	39347	515	72371099
-512	135	4079	-859	-840	-9063	-64	-40	156	517	39400	516	72371101
-508	133	4076	-846	-842	-9053	-64	-40	156	518	39500	517	72371133
-497	151	4053	-848	-843	-9055	-59	-27	157	519	39553	518	72371134
-518	136	4043	-854	-846	-9062	-59	-27	157	520	39653	519	72371137
-521	151	4045	-851	-843	-9072	-62	-28	156	521	39706	520	72371139
-502	148	4051	-846	-845	-9057	-62	-28	156	522	39806	521	72371141
-486	147	4073	-848	-838	-9062	-55	-33	169	523	39859	522	72371141
-533	138	4041	-851	-840	-9043	-55	-33	169	524	39959	523	72371142
-497	144	4072	-847	-843	-9067	-66	-10	154	525	40012	524	72371146
-511	150	4061	-841	-838	-9053	-66	-10	154	526	40112	525	72371148
-501	139	4062	-849	-843	-9073	-51	-25	169	527	40165	526	72371181
-515	140	4074	-852	-838	-9054	-51	-25	169	528	40265	527	72371181
-509	145	4073	-848	-840	-9054	-46	-6	168	529	40318	528	72371183
-510	134	4032	-852	-841	-9064	-46	-6	168	530	40418	529	72371184
-530	123	4028	-859	-840	-9064	-52	-12	166	531	40471	530	72371185
-483	111	4061	-854	-841	-9043	-52	-12	166	532	40571	531	72371188
-508	131	4067	-848	-839	-9049	-35	-11	173	533	40624	532	72371188
-508	142	4077	-847	-835	-9068	-35	-11	173	534	40724	533	72371191
-480	144	4063	-848	-845	-9094	-44	2	158	535	40777	534	72371197
-515	151	4065	-848	-844	-9058	-44	2	158	536	40877	535	72371197
-517	151	4071	-846	-844	-9066	-32	-18	172	537	40930	536	72371208
-491	140	4055	-848	-846	-9060	-32	-18	172	538	41030	537	72371208
-512	134	4047	-852	-840	-9040	-30	12	162	539	41083	538	72371211
-502	136	4048	-854	-837	-9059	-30	12	162	540	41183	539	72371245
-502	133	4074	-852	-840	-9066	-31	-5	157	541	41236	540	72371245
-513	144	4099	-850	-836	-9052	-31	-5	157	542	41336	541	72371248
-491	152	4083	-850	-842	-9045	-17	-3	171	543	41389	542	72371249
-509	146	4092	-853	-837	-9067	-17	-3	171	544	41489	543	72371251
-504	136	4072	-849	-842	-9063	-14	12	150	545	41542	544	72371252
-514	141	4065	-846	-842	-9063	-14	12	150	546	41642	545	72371252
-497	138	4050	-851	-837	-9064	-16	-2	156	547	41695	546	72371256
-510	130	4067	-852	-844	-9080	-16	-2	156	548	41795	547	72371256
-490	149	4098	-846	-844	-9069	-4	8	146	549	41848	548	72371268
-499	163	4051	-843	-838	-9043	-4	8	146	550	41948	549	72371268
-513	130	4079	-850	-838	-9059	-19	5	157	551	42001	550	72371268
-500	130	4060	-851	-841	-9071	-19	5	157	552	42102	551	72371303
-500	147	4041	-850	-844	-9053	-5	13	151	553	42154	552	72371304
-489	106	4018	-849	-843	-9042	-5	13	151	554	42254	553	72371307
-499	109	4052	-855	-839	-9042	-8	18	148	555	42307	554	72371308
-505	108	4058	-846	-846	-9050	-8	18	148	556	42407	555	72371309
-505	142	4041	-842	-839	-9045	-11	13	143	557	42460	556	72371336
-492	147	4055	-850	-840	-9067	-11	13	143	558	42560	557	72371338
-471	125	4063	-850	-840	-9084	-3	23	135	559	42613	558	72371340
-495	141	4077	-844	-837	-9075	-3	23	135	560	42713	559	72371341
-484	133	4064	-850	-840	-9035	-11	21	147	561	42766	560	72371343
-493	124	4046	-854	-837	-9047	-11	21	147	562	42866	561	72371344
-484	131	4068	-852	-837	-9066	1	15	133	563	42919	562	72371344
-489	131	4065	-848	-846	-9031	1	15	133	564	43019	563	72371349
-513	153	4052	-847	-838	-9073	1	27	131	565	43072	564	72371349
-490	120	4051	-848	-846	-9057	1	27	131	566	43172	565	72371350
-486	124	4051	-849	-845	-9040	-3	23	135	567	43225	566	72371355
-505	132	4073	-849	-837	-9044	-3	23	135	568	43325	567	72371355
-488	131	4085	-852	-846	-9070	8	26	134	569	43378	568	72371366
-489	111	4059	-850	-843	-9065	8	26	134	570	43478	569	72371366
-473	118	4080	-850	-840	-9064	11	25	135	571	43531	570	72371368
-483	124	4049	-852	-839	-9094	11	25	135	572	43631	571	72371401
-501	135	4091	-848	-837	-9077	11	29	127	573	43684	572	72371402
-483	123	4075	-845	-840	-9065	11	29	127	574	43784	573	72371405
-482	133	4067	-850	-841	-9064	14	32	128	575	43837	574	72371405
-517	125	4090	-849	-841	-9046	14	32	128	576	43938	575	72371407
-477	135	4078	-852	-848	-9054	13	37	127	577	43990	576	72371409
-490	120	4054	-854	-843	-9059	13	37	127	578	44090	577	72371411
-504	125	4053	-852	-844	-9054	8	40	122	579	44143	578	72371416
-474	131	4077	-849	-848	-9077	8	40	122	580	44243	579	72371419
-489	124	4053	-847	-844	-9070	23	39	129	581	44296	580	72371421
-481	125	4063	-849	-843	-9073	23	39	129	582	44396	581	72371427
-488	133	4078	-852	-843	-9086	25	45	121	583	44449	582	72371428
-495	126	4065	-850	-841	-9066	25	45	121	584	44549	583	72371462
-483	126	4074	-851	-843	-9080	23	41	119	585	44602	584	72371463
-487	121	4061	-854	-841	-9086	23	41	119	586	44703	585	72371466
-474	126	4066	-848	-842	-9079	24	42	112	587	44756	586	72371466
-486	128	4054	-847	-841	-9062	24	42	112	588	44856	587	72371469
-491	126	4061	-847	-842	-9070	29	41	113	589	44909	588	72371470
-469	122	4049	-848	-849	-9096	29	41	113	590	45009	589	72371470
-491	132	4060	-847	-843	-9072	33	45	111	591	45062	590	72371473
-489	127	4063	-847	-846	-9060	33	45	111	592	45162	591	72371474
-479	110	4050	-853	-847	-9068	30	44	106	593	45215	592	72371478
-459	142	4054	-852	-844	-9079	30	44	106	594	45315	593	72371515
-472	146	4046	-848	-844	-9055	31	45	113	595	45368	594	72371515
-475	131	4071	-851	-847	-9070	31	45	113	596	45468	595	72371518
-489	129	4027	-849	-842	-9093	32	46	106	597	45521	596	72371519
-481	143	4058	-846	-839	-9076	32	46	106	598	45621	597	72371521
-480	144	4040	-850	-840	-9071	37	51	105	599	45674	598	72371525
-484	131	4067	-852	-843	-9075	37	51	105	600	45774	599	72371525
-472	127	4065	-854	-841	-9076	38	50	104	601	45827	600	72371528
-478	138	4063	-851	-838	-9060	38	50	104	602	45927	601	72371529
-470	133	4034	-853	-845	-9047	42	52	106	603	45980	602	72371531
-478	146	4076	-856	-841	-9074	42	52	106	604	46080	603	72371537
-484	123	4075	-848	-839	-9083	35	47	109	605	46133	604	72371538
-476	135	4046	-848	-841	-9068	35	47	109	606	46233	605	72371572
-501	138	4023	-852	-839	-9076	39	49	103	607	46286	606	72371573
-484	153	4040	-847	-844	-9100	39	49	103	608	46387	607	72371575
-489	131	4038	-849	-840	-9075	46	52	108	609	46440	608	72371576
-489	122	4057	-852	-843	-9051	46	52	108	610	46540	609	72371576
-474	140	4083	-849	-846	-9067	43	49	103	611	46593	610	72371582
-477	147	4073	-848	-837	-9068	43	49	103	612	46693	611	72371582
-482	131	4043	-850	-837	-9053	48	56	106	613	46747	612	72371586
-467	136	4085	-851	-842	-9063	48	56	106	614	46847	613	72371586
-479	137	4054	-849	-839	-9037	54	50	116	615	46900	614	72371586
-474	125	4054	-852	-843	-9044	54	50	116	616	47000	615	72371597
-463	128	4064	-851	-849	-9068	57	51	115	617	47053	616	72371597
-472	132	4069	-848	-846	-9067	57	51	115	618	47153	617	72371609
-465	141	4053	-845	-843	-9034	65	55	121	619	47207	618	72371613
-480	137	4064	-847	-841	-9055	65	55	121	620	47307	619	72371614
-475	148	4078	-849	-839	-9062	67	53	117	621	47360	620	72371646
-463	144	4071	-851	-847	-9067	67	53	117	622	47460	621	72371646
-473	144	4087	-848	-845	-9050	72	56	112	623	47513	622	72371650
-464	117	4053	-852	-848	-9063	72	56	112	624	47613	623	72371650
-472	122	4062	-849	-840	-9072	74	56	118	625	47666	624	72371652
-468	139	4061	-848	-842	-9050	74	56	118	626	47766	625	72371653
-456	123	4075	-850	-843	-9059	81	53	117	627	47819	626	72371654
-475	140	4093	-848	-839	-9077	81	53	117	628	47919	627	72371657
-469	152	4085	-845	-842	-9062	86	50	118	629	47972	628	72371658
-483	145	4027	-852	-844	-9075	86	50	118	630	48072	629	72371661
-462	147	4068	-853	-845	-9069	94	48	122	631	48125	630	72371694
-467	142	4061	-846	-845	-9070	94	48	122	632	48226	631	72371694
-475	149	4076	-848	-842	-9056	97	43	125	633	48279	632	72371699
-467	143	4057	-854	-840	-9059	97	43	125	634	48379	633	72371699
-451	153	4072	-848	-841	-9080	99	41	125	635	48432	634	72371700
-478	166	4030	-845	-834	-9070	99	41	125	636	48532	635	72371701
-467	152	4051	-854	-841	-9048	103	35	129	637	48585	636	72371702
-471	143	4087	-853	-842	-9047	103	35	129	638	48685	637	72371705
-488	164	4062	-846	-842	-9047	107	27	127	639	48738	638	72371705
-469	135	4042	-851	-845	-9041	107	27	127	640	48838	639	72371711
-467	140	4050	-856	-841	-9061	106	22	130	641	48891	640	72371744
-457	152	4053	-843	-844	-9070	106	22	130	642	48991	641	72371744
-465	141	4062	-846	-841	-9057	110	14	140	643	49044	642	72371748
-461	142	4073	-852	-845	-9053	110	14	140	644	49144	643	72371749
-475	141	4054	-853	-844	-9072	112	8	134	645	49197	644	72371751
-473	165	4045	-845	-838	-9032	112	8	134	646	49297	645	72371752
-470	160	4059	-847	-841	-9039	110	2	134	647	49350	646	72371752
-479	134	4063	-856	-843	-9046	110	2	134	648	49450	647	72371755
-471	144	4082	-854	-839	-9063	108	-8	136	649	49503	648	72371755
-451	153	4040	-848	-840	-9050	108	-8	136	650	49603	649	72371767
-475	142	4051	-851	-841	-9075	110	-12	138	651	49656	650	72371767
-478	142	4061	-847	-837	-9081	110	-12	138	652	49756	651	72371769
-473	138	4070	-847	-844	-9066	105	-17	139	653	49809	652	72371803
-457	155	4032	-850	-842	-9047	105	-17	139	654	49909	653	72371805
-465	163	4057	-848	-845	-9057	106	-26	142	655	49962	654	72371807
-455	138	4066	-852	-845	-9068	106	-26	142	656	50063	655	72371808
-464	172	4068	-848	-842	-9053	103	-29	137	657	50115	656	72371810
-458	154	4052	-851	-840	-9064	103	-29	137	658	50215	657	72371811
-485	167	4044	-848	-840	-9102	100	-32	138	659	50268	658	72371812
-468	166	4048	-846	-840	-9054	100	-32	138	660	50369	659	72371815
-468	155	4050	-854	-846	-9065	97	-35	135	661	50422	660	72371815
-483	175	4047	-850	-839	-9061	97	-35	135	662	50522	661	72371819
-449	168	4043	-845	-842	-9079	93	-39	143	663	50575	662	72371854
-482	163	4073	-849	-839	-9074	93	-39	143	664	50675	663	72371854
-491	149	4082	-856	-845	-9060	96	-44	150	665	50728	664	72371858
-471	146	4070	-852	-843	-9070	96	-44	150	666	50829	665	72371858
-477	156	4041	-849	-840	-9079	89	-49	135	667	50881	666	72371860
-453	167	4064	-850	-840	-9067	89	-49	135	668	50981	667	72371861
-467	161	4072	-849	-839	-9075	93	-51	143	669	51034	668	72371861
-476	158	4047	-847	-834	-9057	93	-51	143	670	51134	669	72371865
-455	159	4058	-849	-843	-9061	90	-54	140	671	51187	670	72371865
-460	139	4065	-854	-845	-9060	90	-54	140	672	51287	671	72371869
-464	157	4047	-850	-842	-9076	79	-53	147	673	51340	672	72371903
-465	168	4077	-847	-840	-9067	79	-53	147	674	51440	673	72371903
-486	167	4082	-846	-837	-9056	84	-62	142	675	51493	674	72371906
-462	152	4051	-849	-845	-9041	84	-62	142	676	51593	675	72371910
-484	161	4049	-848	-842	-9068	78	-58	144	677	51646	676	72371910
-476	176	4062	-849	-846	-9052	78	-58	144	678	51746	677	72371911
-453	155	4060	-856	-846	-9041	74	-64	150	679	51799	678	72371911
-480	148	4065	-851	-840	-9071	74	-64	150	680	51899	679	72371914
-458	174	4051	-846	-843	-9032	76	-68	144	681	51952	680	72371914
-484	170	4037	-850	-846	-9059	76	-68	144	682	52052	681	72371925
-476	170	4065	-850	-839	-9064	70	-70	148	683	52105	682	72371925
-459	179	4045	-850	-844	-9073	70	-70	148	684	52205	683	72371928
-476	164	4047	-851	-843	-9067	65	-73	149	685	52258	684	72371975
-498	160	4038	-850	-837	-9078	65	-73	149	686	52358	685	72371975
-466	165	4060	-848	-843	-9062	66	-76	152	687	52411	686	72371978
-498	168	4043	-849	-839	-9059	66	-76	152	688	52511	687	72371979
-476	164	4053	-850	-843	-9055	61	-63	147	689	52564	688	72371981
-465	174	4066	-849	-842	-9053	61	-63	147	690	52665	689	72371982
-473	179	4062	-848	-840	-9057	53	-71	145	691	52717	690	72371982
-468	157	4051	-854	-843	-9068	53	-71	145	692	52818	691	72371986
-474	163	4055	-853	-839	-9050	61	-79	155	693	52870	692	72371986
-478	168	4051	-848	-838	-9069	61	-79	155	694	52970	693	72371988
-476	173	4049	-848	-846	-9063	53	-75	151	695	53023	694	72371990
-486	145	4047	-853	-845	-9040	53	-75	151	696	53123	695	72371990
-486	159	4072	-845	-840	-9058	48	-74	156	697	53176	696	72371998
-477	199	4077	-845	-842	-9056	48	-74	156	698	53276	697	72371999
-474	180	4039	-853	-844	-9051	47	-81	155	699	53329	698	72372002
-482	165	4042	-856	-840	-9045	47	-81	155	700	53429	699	72372035
-478	173	4020	-848	-840	-9061	43	-79	155	701	53483	700	72372035
-463	175	4046	-850	-840	-9047	43	-79	155	702	53583	701	72372038
-490	167	4083	-852	-834	-9045	49	-81	161	703	53636	702	72372039
-489	175	4083	-849	-840	-9072	49	-81	161	704	53736	703	72372041
-472	191	4039	-847	-843	-9065	44	-80	152	705	53789	704	72372042
-494	174	4049	-850	-838	-9061	44	-80	152	706	53889	705	72372043
-471	164	4039	-856	-842	-9069	39	-79	157	707	53942	706	72372047
-479	173	4089	-844	-837	-9093	39	-79	157	708	54042	707	72372048
-496	187	4092	-841	-838	-9070	34	-82	154	709	54095	708	72372082
-471	165	4069	-856	-847	-9059	34	-82	154	710	54195	709	72372083
-475	152	4053	-851	-843	-9064	38	-88	156	711	54248	710	72372085
-504	181	4017	-844	-838	-9072	38	-88	156	712	54348	711	72372089
-481	171	4028	-845	-845	-9064	37	-83	155	713	54401	712	72372090
-501	164	4066	-853	-840	-9050	37	-83	155	714	54501	713	72372090
-487	175	4086	-849	-842	-9073	29	-87	155	715	54554	714	72372091
-460	174	4063	-850	-843	-9062	29	-87	155	716	54654	715	72372092
-504	164	4018	-853	-839	-9048	25	-81	153	717	54707	716	72372097
-489	159	4058	-854	-839	-9044	25	-81	153	718	54807	717	72372098
-501	154	4077	-847	-839	-9076	29	-83	155	719	54860	718	72372132
-512	170	4062	-842	-844	-9069	29	-83	155	720	54960	719	72372133
-489	177	4066	-844	-843	-9059	18	-84	156	721	55013	720	72372135
-505	173	4074	-848	-838	-9074	18	-84	156	722	55113	721	72372136
-512	183	4053	-848	-844	-9082	22	-82	154	723	55166	722	72372136
-493	182	4033	-849	-844	-9056	22	-82	154	724	55266	723	72372140
-493	164	4055	-853	-841	-9053	12	-80	154	725	55319	724	72372140
-507	155	4080	-855	-838	-9067	12	-80	154	726	55419	725	72372142
-501	159	4099	-853	-842	-9058	15	-81	147	727	55472	726	72372145
-492	185	4039	-847	-842	-9062	15	-81	147	728	55572	727	72372145
-502	155	4024	-852	-848	-9076	11	-87	153	729	55625	728	72372180
-509	161	4029	-849	-847	-9084	11	-87	153	730	55725	729	72372180
-511	170	4079	-845	-847	-9067	5	-87	149	731	55778	730	72372182
-494	178	4103	-847	-841	-9051	5	-87	149	732	55878	731	72372184
-503	174	4080	-850	-839	-9063	3	-83	147	733	55931	732	72372184
-483	163	4073	-852	-842	-9069	3	-83	147	734	56031	733	72372187
-491	161	4038	-849	-844	-9078	1	-83	145	735	56084	734	72372188
-504	161	4048	-850	-841	-9074	1	-83	145	736	56184	735	72372191
-505	170	4064	-855	-841	-9077	1	-79	149	737	56237	736	72372191
-487	181	4094	-853	-838	-9053	1	-79	149	738	56338	737	72372194
-476	177	4063	-853	-839	-9060	-3	-83	151	739	56390	738	72372230
-508	156	4064	-854	-843	-9077	-3	-83	151	740	56490	739	72372233
-516	155	4041	-853	-848	-9058	-12	-80	150	741	56543	740	72372245
-499	155	4046	-847	-843	-9069	-12	-80	150	742	56643	741	72372248
-513	166	4060	-846	-842	-9071	-10	-78	144	743	56696	742	72372249
-494	164	4098	-845	-844	-9086	-10	-78	144	744	56797	743	72372249
-502	185	4069	-846	-846	-9086	-22	-82	138	745	56850	744	72372249
-519	176	4035	-852	-841	-9070	-22	-82	138	746	56950	745	72372249
-492	162	4037	-852	-846	-9060	-17	-79	139	747	57003	746	72372250
-514	162	4059	-851	-841	-9090	-17	-79	139	748	57103	747	72372250
-508	150	4065	-853	-845	-9063	-19	-77	147	749	57156	748	72372276
-495	167	4074	-852	-846	-9074	-19	-77	147	750	57256	749	72372276
-508	167	4056	-849	-845	-9086	-25	-77	141	751	57309	750	72372280
-515	153	4071	-851	-844	-9056	-25	-77	141	752	57409	751	72372280
-502	164	4045	-850	-842	-9065	-17	-73	141	753	57462	752	72372282
-506	153	4060	-847	-847	-9058	-17	-73	141	754	57562	753	72372284
-509	178	4060	-848	-847	-9066	-32	-68	134	755	57615	754	72372284
-509	170	4076	-851	-838	-9055	-32	-68	134	756	57715	755	72372289
-508	162	4076	-850	-846	-9060	-36	-68	142	757	57768	756	72372289
-502	146	4076	-848	-842	-9061	-36	-68	142	758	57868	757	72372291
-511	153	4080	-845	-843	-9054	-29	-67	151	759	57921	758	72372323
-501	167	4049	-846	-842	-9062	-29	-67	151	760	58021	759	72372324
-525	157	4080	-850	-843	-9056	-38	-60	132	761	58074	760	72372327
-520	153	4046	-849	-842	-9047	-38	-60	132	762	58174	761	72372327
-486	156	4036	-855	-841	-9051	-44	-58	142	763	58227	762	72372331
-508	143	4086	-854	-841	-9066	-44	-58	142	764	58327	763	72372331
-515	152	4060	-854	-846	-9058	-48	-54	136	765	58380	764	72372333
-510	163	4052	-845	-844	-9062	-48	-54	136	766	58480	765	72372340
-522	159	4055	-848	-846	-9050	-50	-54	148	767	58533	766	72372340
-496	159	4071	-850	-847	-9072	-50	-54	148	768	58633	767	72372350
-510	152	4063	-846	-840	-9065	-42	-60	146	769	58686	768	72372350
-496	167	4070	-850	-843	-9053	-42	-60	146	770	58786	769	72372353
-522	155	4048	-849	-843	-9058	-58	-48	142	771	58839	770	72372387
-515	138	4051	-855	-845	-9062	-58	-48	142	772	58939	771	72372388
-494	147	4058	-848	-842	-9053	-56	-48	148	773	58992	772	72372391
-497	143	4058	-847	-843	-9051	-56	-48	148	774	59092	773	72372391
-495	139	4086	-848	-838	-9054	-60	-34	142	775	59145	774	72372393
-505	170	4061	-846	-839	-9054	-60	-34	142	776	59246	775	72372394
-520	163	4058	-848	-844	-9063	-60	-34	152	777	59298	776	72372395
-512	147	4050	-858	-841	-9080	-60	-34	152	778	59398	777	72372398
-509	144	4061	-852	-845	-9058	-64	-40	152	779	59451	778	72372399
-515	162	4069	-844	-842	-9041	-64	-40	152	780	59551	779	72372402
-505	146	4059	-849	-847	-9044	-61	-25	153	781	59604	780	72372436
-521	142	4081	-844	-839	-9083	-61	-25	153	782	59704	781	72372436
-503	162	4066	-843	-847	-9054	-53	-39	165	783	59757	782	72372440
-509	152	4060	-850	-838	-9057	-53	-39	165	784	59857	783	72372440
-518	148	4082	-851	-841	-9057	-57	-15	159	785	59910	784	72372442
-520	157	4059	-849	-847	-9051	-57	-15	159	786	60010	785	72372443
-513	157	4055	-851	-839	-9039	-63	-25	159	787	60063	786	72372444
-509	144	4068	-852	-839	-9072	-63	-25	159	788	60163	787	72372447
-489	132	4069	-849	-845	-9057	-44	-18	168	789	60216	788	72372448
-521	159	4071	-847	-840	-9056	-44	-18	168	790	60316	789	72372483
-501	133	4037	-849	-843	-9054	-51	-9	165	791	60369	790	72372484
-525	140	4075	-850	-839	-9078	-51	-9	165	792	60469	791	72372486
-522	129	4074	-847	-839	-9066	-37	-25	181	793	60522	792	72372490
-485	153	4059	-853	-841	-9087	-37	-25	181	794	60622	793	72372492
-505	124	4077	-857	-839	-9066	-35	3	169	795	60675	794	72372492
-513	121	4101	-848	-843	-9058	-35	3	169	796	60775	795	72372502
-489	143	4066	-845	-843	-9045	-39	-13	159	797	60828	796	72372504
-511	131	4050	-848	-843	-9043	-39	-13	159	798	60928	797	72372505
-507	131	4040	-851	-844	-9064	-32	-8	174	799	60981	798	72372506
-506	135	4013	-845	-842	-9082	-32	-8	174	800	61081	799	72372510
-491	165	4040	-846	-842	-9041	-21	-1	157	801	61134	800	72372510
-507	136	4078	-857	-843	-9065	-21	-1	157	802	61234	801	72372512
-517	120	4091	-855	-841	-9045	-29	-7	163	803	61287	802	72372545
-490	133	4048	-847	-842	-9054	-29	-7	163	804	61387	803	72372549
-511	127	4033	-850	-841	-9047	-13	9	155	805	61440	804	72372549
-505	124	4054	-854	-840	-9064	-13	9	155	806	61540	805	72372550
-479	156	4061	-846	-846	-9065	-24	-4	156	807	61593	806	72372551
-513	144	4049	-842	-841	-9058	-24	-4	156	808	61693	807	72372552
-480	124	4059	-853	-844	-9069	-13	11	147	809	61746	808	72372553
-500	124	4046	-856	-840	-9065	-13	11	147	810	61846	809	72372559
-510	150	4082	-848	-832	-9055	-18	6	150	811	61899	810	72372560
-493	136	4035	-848	-841	-9066	-18	6	150	812	61999	811	72372560
-519	140	4084	-853	-841	-9069	-20	2	154	813	62052	812	72372615
-496	152	4048	-851	-844	-9059	-20	2	154	814	62152	813	72372615
-486	140	4049	-847	-846	-9071	-2	14	146	815	62205	814	72372619
-519	129	4059	-855	-838	-9067	-2	14	146	816	62305	815	72372619
-501	123	4047	-853	-844	-9063	-18	14	146	817	62358	816	72372622
-512	154	4069	-846	-844	-9029	-18	14	146	818	62458	817	72372623
-491	123	4077	-852	-847	-9047	-8	16	142	819	62511	818	72372625
-491	112	4037	-850	-847	-9045	-8	16	142	820	62611	819	72372628
-512	144	4082	-844	-837	-9073	-3	17	137	821	62664	820	72372628
-517	146	4064	-847	-836	-9031	-3	17	137	822	62764	821	72372630
-500	125	4060	-852	-840	-9055	-1	17	135	823	62817	822	72372630
-510	125	4060	-845	-839	-9058	-1	17	135	824	62917	823	72372632
-476	138	4089	-846	-841	-9060	2	26	138	825	62970	824	72372634
-488	119	4041	-852	-841	-9040	2	26	138	826	63070	825	72372634
-502	111	4055	-853	-842	-9057	-4	22	142	827	63123	826	72372642
-483	130	4032	-848	-843	-9060	-4	22	142	828	63223	827	72372643
-481	157	4045	-844	-838	-9032	8	28	132	829	63276	828	72372645
-491	126	4070	-854	-845	-9055	8	28	132	830	63376	829	72372680
-494	121	4072	-848	-843	-9077	9	35	129	831	63429	830	72372681
-503	135	4058	-843	-841	-9053	9	35	129	832	63529	831	72372684
-461	135	4042	-850	-848	-9080	8	32	132	833	63582	832	72372684
-515	104	4056	-857	-839	-9064	8	32	132	834	63682	833	72372688
-512	99	4056	-850	-838	-9058	10	36	126	835	63735	834	72372688
-465	146	4047	-839	-841	-9029	10	36	126	836	63835	835	72372689
-510	127	4077	-854	-838	-9064	10	36	128	837	63888	836	72372691
-492	117	4071	-858	-838	-9083	10	36	128	838	63988	837	72372692
-484	145	4070	-838	-836	-9030	25	37	121	839	64041	838	72372702
-493	136	4043	-848	-841	-9036	25	37	121	840	64141	839	72372703
-486	118	4031	-862	-842	-9050	15	35	125	841	64194	840	72372703
-501	127	4042	-843	-837	-9052	15	35	125	842	64294	841	72372738
-478	138	4085	-838	-843	-9067	20	42	122	843	64347	842	72372738
-458	133	4064	-852	-843	-9054	20	42	122	844	64447	843	72372741
-504	117	4044	-853	-834	-9054	31	41	123	845	64500	844	72372741
-485	129	4034	-845	-844	-9052	31	41	123	846	64600	845	72372743
-481	136	4029	-845	-837	-9057	26	40	114	847	64653	846	72372745
-479	123	4065	-850	-838	-9060	26	40	114	848	64753	847	72372746
-479	129	4116	-850	-839	-9077	25	41	111	849	64806	848	72372750
-486	130	4104	-846	-839	-9063	25	41	111	850	64906	849	72372750
-508	112	4050	-851	-841	-9073	27	43	115	851	64959	850	72372753
-496	113	4028	-849	-845	-9065	27	43	115	852	65059	851	72372786
-480	129	4041	-839	-841	-9047	27	47	115	853	65112	852	72372787
-478	135	4063	-848	-845	-9045	27	47	115	854	65212	853	72372790
-470	137	4090	-854	-849	-9068	30	50	108	855	65265	854	72372790
-478	128	4073	-847	-843	-9052	30	50	108	856	65365	855	72372792
-487	126	4056	-851	-845	-9051	34	50	104	857	65418	856	72372794
-483	96	4022	-855	-842	-9073	34	50	104	858	65518	857	72372794
-486	122	4027	-848	-837	-9078	35	51	99	859	65571	858	72372798
-484	128	4075	-850	-841	-9063	35	51	99	860	65671	859	72372799
-474	129	4094	-852	-845	-9063	37	45	111	861	65724	860	72372801
-489	135	4079	-852	-836	-9075	37	45	111	862	65824	861	72372834
-496	131	4040	-846	-842	-9073	47	51	109	863	65877	862	72372835
-461	134	4040	-845	-850	-9059	47	51	109	864	65977	863	72372837
-479	144	4105	-845	-846	-9056	37	51	105	865	66030	864	72372838
-460	143	4110	-849	-846	-9094	37	51	105	866	66131	865	72372841
-517	116	4041	-861	-844	-9065	39	51	103	867	66183	866	72372841
-508	105	3960	-855	-838	-9073	39	51	103	868	66283	867	72372844
-454	155	4024	-835	-848	-9067	38	54	102	869	66336	868	72372849
-451	183	4136	-838	-845	-9078	38	54	102	870	66437	869	72372850
-499	131	4147	-868	-836	-9047	49	53	109	871	66489	870	72372884
-482	97	4045	-865	-843	-9070	49	53	109	872	66589	871	72372884
-476	124	3899	-837	-845	-9097	53	59	103	873	66642	872	72372886
-463	150	3969	-839	-836	-9070	53	59	103	874	66743	873	72372891
-459	141	4165	-852	-841	-9060	51	53	99	875	66796	874	72372893
-462	126	4201	-846	-838	-9082	51	53	99	876	66896	875	72372894
-499	132	4093	-851	-848	-9066	52	58	106	877	66949	876	72372896
-495	123	3952	-860	-847	-9075	52	58	106	878	67049	877	72372901
-492	133	3970	-846	-844	-9084	55	55	109	879	67102	878	72372901
-464	170	4063	-835	-851	-9093	55	55	109	880	67202	879	72372902
-453	160	4158	-841	-850	-9049	66	54	116	881	67255	880	72372934
-482	115	4168	-861	-850	-9063	66	54	116	882	67355	881	72372934
-490	98	4033	-858	-843	-9071	71	45	115	883	67408	882	72372937
-476	144	3974	-838	-840	-9074	71	45	115	884	67508	883	72372938
-474	171	3969	-843	-841	-9054	71	53	117	885	67561	884	72372940
-467	154	4084	-858	-836	-9072	71	53	117	886	67662	885	72372941
-471	114	4166	-858	-839	-9053	72	54	118	887	67715	886	72372942
-460	136	4106	-851	-838	-9055	72	54	118	888	67815	887	72372945
-481	134	4008	-849	-838	-9045	86	48	118	889	67868	888	72372945
-468	135	3960	-850	-844	-9070	86	48	118	890	67969	889	72372949
-459	130	4022	-848	-849	-9065	93	43	123	891	68021	890	72372981
-474	140	4079	-847	-844	-9060	93	43	123	892	68121	891	72372981
-454	140	4112	-846	-842	-9071	94	42	120	893	68174	892	72372985
-480	138	4065	-845	-844	-9072	94	42	120	894	68274	893	72372985
-498	157	3992	-846	-839	-9076	92	42	120	895	68327	894	72372988
-468	126	4010	-854	-841	-9079	92	42	120	896	68427	895	72372989
-479	135	4058	-849	-837	-9083	101	39	121	897	68480	896	72372989
-464	149	4104	-844	-840	-9088	101	39	121	898	68580	897	72372992
-448	152	4090	-855	-841	-9063	104	32	124	899	68633	898	72372993
-475	137	4054	-857	-844	-9064	104	32	124	900	68733	899	72373028
-475	146	4028	-849	-840	-9077	106	18	132	901	68786	900	72373029
-483	147	4033	-850	-843	-9058	106	18	132	902	68886	901	72373031
-480	138	4069	-848	-845	-9070	111	15	139	903	68939	902	72373032
-479	141	4103	-843	-837	-9069	111	15	139	904	69039	903	72373032
-464	150	4081	-846	-846	-9064	109	13	131	905	69092	904	72373035
-465	154	4038	-849	-843	-9043	109	13	131	906	69192	905	72373035
-483	173	4031	-845	-834	-9041	108	8	136	907	69245	906	72373038
-478	167	4032	-846	-843	-9059	108	8	136	908	69345	907	72373040
-448	154	4066	-856	-841	-9066	110	-4	132	909	69398	908	72373040
-481	141	4090	-859	-837	-9055	110	-4	132	910	69498	909	72373076
-463	147	4076	-851	-846	-9069	112	-12	138	911	69551	910	72373078
-458	150	4059	-850	-845	-9074	112	-12	138	912	69651	911	72373079
-461	136	4062	-856	-838	-9061	110	-14	136	913	69704	912	72373080
-433	147	4070	-852	-844	-9079	110	-14	136	914	69804	913	72373080
-450	158	4095	-847	-842	-9056	108	-16	140	915	69857	914	72373083
-468	154	4061	-849	-843	-9044	108	-16	140	916	69957	915	72373084
-445	136	4054	-847	-843	-9055	100	-22	138	917	70010	916	72373086
-483	174	4054	-841	-840	-9052	100	-22	138	918	70110	917	72373091
-478	160	4069	-850	-846	-9056	102	-32	140	919	70163	918	72373092
-491	132	4026	-854	-843	-9058	102	-32	140	920	70263	919	72373101
-467	146	4072	-847	-838	-9076	101	-35	143	921	70316	920	72373102
-475	158	4052	-849	-847	-9053	101	-35	143	922	70416	921	72373112
-473	155	4054	-857	-843	-9064	100	-38	140	923	70469	922	72373113
-477	162	4077	-854	-843	-9069	100	-38	140	924	70569	923	72373113
-467	157	4097	-849	-850	-9079	95	-39	143	925	70622	924	72373149
-454	166	4061	-847	-842	-9052	95	-39	143	926	70722	925	72373149
-479	153	4041	-854	-846	-9053	95	-49	141	927	70775	926	72373152
-491	158	4045	-849	-842	-9057	95	-49	141	928	70875	927	72373153
-470	166	4037	-842	-840	-9047	89	-45	139	929	70928	928	72373155
-453	162	4064	-847	-834	-9051	89	-45	139	930	71028	929	72373156
-473	173	4087	-848	-838	-9056	87	-51	141	931	71081	930	72373159
-455	174	4050	-849	-843	-9057	87	-51	141	932	71181	931	72373160
-484	169	4035	-851	-839	-9054	83	-59	137	933	71234	932	72373160
-490	143	4041	-857	-843	-9017	83	-59	137	934	71334	933	72373166
-459	160	4048	-851	-846	-9041	81	-59	149	935	71387	934	72373199
-465	148	4077	-848	-842	-9051	81	-59	149	936	71487	935	72373199
-464	165	4062	-852	-841	-9071	81	-61	147	937	71540	936	72373202
-471	167	4068	-853	-842	-9063	81	-61	147	938	71640	937	72373203
-485	166	4027	-847	-840	-9080	76	-64	148	939	71693	938	72373205
-462	141	4038	-851	-844	-9056	76	-64	148	940	71793	939	72373206
-467	147	4049	-850	-838	-9049	71	-63	149	941	71846	940	72373206
-461	169	4063	-846	-840	-9052	71	-63	149	942	71946	941	72373210
-470	144	4078	-849	-843	-9061	73	-67	147	943	71999	942	72373210
-503	151	4072	-853	-835	-9044	73	-67	147	944	72099	943	72373214
-465	168	4061	-852	-839	-9055	67	-67	155	945	72152	944	72373255
-477	165	4057	-847	-844	-9066	67	-67	155	946	72252	945	72373258
-482	159	4065	-854	-841	-9066	67	-61	151	947	72305	946	72373259
-465	165	4085	-850	-847	-9057	67	-61	151	948	72405	947	72373260
-473	171	4040	-845	-846	-9081	62	-66	146	949	72458	948	72373262
-466	162	4028	-850	-844	-9079	62	-66	146	950	72558	949	72373263
-479	154	4083	-855	-842	-9053	56	-70	148	951	72611	950	72373263
-484	167	4053	-849	-839	-9069	56	-70	148	952	72711	951	72373266
-468	184	4036	-847	-841	-9088	54	-74	148	953	72764	952	72373267
-488	166	4067	-850	-837	-9061	54	-74	148	954	72864	953	72373270
-480	171	4091	-850	-839	-9049	53	-73	157	955	72917	954	72373271
-494	184	4063	-848	-843	-9063	53	-73	157	956	73017	955	72373273
-482	155	4083	-848	-839	-9061	54	-76	152	957	73070	956	72373308
-484	147	4071	-857	-843	-9061	54	-76	152	958	73170	957	72373309
-487	157	4051	-853	-846	-9049	51	-79	155	959	73223	958	72373312
-492	175	4074	-846	-846	-9068	51	-79	155	960	73323	959	72373312
-490	164	4042	-848	-841	-9068	47	-75	151	961	73376	960	72373314
-496	158	4059	-855	-843	-9065	47	-75	151	962	73476	961	72373316
-471	166	4043	-849	-846	-9094	42	-82	148	963	73529	962	72373316
-477	173	4083	-849	-836	-9066	42	-82	148	964	73629	963	72373319
-505	169	4066	-853	-834	-9057	46	-78	154	965	73682	964	72373320
-481	151	4068	-850	-843	-9084	46	-78	154	966	73782	965	72373323
-497	177	4067	-848	-842	-9075	44	-82	158	967	73835	966	72373358
-488	171	4069	-850	-842	-9078	44	-82	158	968	73936	967	72373358
-470	178	4060	-852	-845	-9066	35	-83	155	969	73989	968	72373364
-478	167	4045	-844	-841	-9068	35	-83	155	970	74089	969	72373369
-467	163	4064	-849	-845	-9073	29	-77	153	971	74142	970	72373370
-503	164	4064	-851	-838	-9053	29	-77	153	972	74242	971	72373370
-493	169	4059	-848	-842	-9061	30	-84	152	973	74295	972	72373370
-467	178	4050	-850	-847	-9064	30	-84	152	974	74395	973	72373371
-502	159	4049	-854	-842	-9046	28	-84	152	975	74448	974	72373371
-485	175	4050	-849	-844	-9065	28	-84	152	976	74548	975	72373371
-475	180	4042	-846	-839	-9063	24	-86	156	977	74601	976	72373380
-500	180	4058	-854	-832	-9069	24	-86	156	978	74701	977	72373380
-485	172	4082	-853	-836	-9049	24	-88	160	979	74754	978	72373419
-501	164	4061	-846	-842	-9052	24	-88	160	980	74854	979	72373420
-478	167	4064	-848	-840	-9067	25	-85	161	981	74907	980	72373421
-497	151	4062	-857	-841	-9062	25	-85	161	982	75007	981	72373422
-513	161	4058	-847	-840	-9071	19	-77	149	983	75060	982	72373424
-490	181	4051	-844	-851	-9069	19	-77	149	984	75160	983	72373425
-501	179	4037	-853	-839	-9082	20	-80	154	985	75213	984	72373426
-489	183	4048	-854	-838	-9045	20	-80	154	986	75313	985	72373431
-471	176	4072	-850	-847	-9061	14	-88	154	987	75366	986	72373432
-491	166	4048	-853	-840	-9052	14	-88	154	988	75467	987	72373432
-511	156	4060	-859	-837	-9063	13	-81	151	989	75519	988	72373464
-492	143	4027	-852	-840	-9060	13	-81	151	990	75619	989	72373464
-495	172	4080	-843	-841	-9061	7	-85	149	991	75672	990	72373472
-506	176	4069	-851	-844	-9069	7	-85	149	992	75772	991	72373473
-515	167	4051	-853	-841	-9053	8	-80	148	993	75825	992	72373475
-509	157	4052	-846	-846	-9050	8	-80	148	994	75925	993	72373480
-484	172	4073	-848	-843	-9049	6	-86	146	995	75978	994	72373481
-502	172	4064	-853	-844	-9051	6	-86	146	996	76078	995	72373481
-496	165	4040	-847	-852	-9062	-1	-83	147	997	76131	996	72373482
-498	170	4049	-850	-848	-9076	-1	-83	147	998	76231	997	72373483
-515	172	4053	-853	-840	-9069	1	-85	145	999	76284	998	72373515
-493	179	4038	-853	-844	-9052	1	-85	145	1000	76384	999	72373515
-517	158	4079	-851	-844	-9066	-8	-82	148	1001	76437	1000	72373518
-506	168	4040	-851	-839	-9074	-8	-82	148	1002	76537	1001	72373519
-506	158	4056	-855	-842	-9052	-8	-78	142	1003	76590	1002	72373521
-502	166	4072	-853	-842	-9073	-8	-78	142	1004	76690	1003	72373522
-507	161	4073	-848	-843	-9080	-15	-77	143	1005	76743	1004	72373523
-509	154	4057	-851	-841	-9081	-15	-77	143	1006	76843	1005	72373526
-508	159	4052	-849	-847	-9075	-18	-78	140	1007	76896	1006	72373526
-499	171	4067	-844	-848	-9063	-18	-78	140	1008	76996	1007	72373561
-496	170	4067	-849	-840	-9076	-24	-74	148	1009	77049	1008	72373561
-505	165	4046	-853	-844	-9080	-24	-74	148	1010	77150	1009	72373562
-484	157	4051	-853	-845	-9077	-20	-76	146	1011	77203	1010	72373565
-499	150	4055	-856	-841	-9076	-20	-76	146	1012	77303	1011	72373565
-495	148	4050	-853	-843	-9072	-26	-72	138	1013	77356	1012	72373568
-502	154	4062	-852	-841	-9065	-26	-72	138	1014	77457	1013	72373581
-493	157	4068	-847	-841	-9087	-25	-71	143	1015	77510	1014	72373582
-502	170	4048	-851	-839	-9072	-25	-71	143	1016	77610	1015	72373582
-508	157	4064	-853	-841	-9077	-36	-72	138	1017	77663	1016	72373584
-496	167	4055	-849	-846	-9058	-36	-72	138	1018	77763	1017	72373586
-510	173	4036	-846	-847	-9072	-27	-71	143	1019	77816	1018	72373588
-516	166	4060	-854	-846	-9078	-27	-71	143	1020	77916	1019	72373590
-502	157	4070	-852	-845	-9025	-34	-66	140	1021	77969	1020	72373624
-504	168	4080	-846	-841	-9071	-34	-66	140	1022	78069	1021	72373624
-524	167	4075	-849	-844	-9072	-36	-60	150	1023	78122	1022	72373627
-493	163	4069	-855	-846	-9080	-36	-60	150	1024	78222	1023	72373628
-529	163	4052	-848	-845	-9072	-39	-61	139	1025	78275	1024	72373630
-509	159	4059	-850	-841	-9087	-39	-61	139	1026	78375	1025	72373631
-517	150	4068	-856	-842	-9072	-50	-52	142	1027	78428	1026	72373631
-499	149	4077	-859	-844	-9052	-50	-52	142	1028	78528	1027	72373635
-492	148	4064	-852	-846	-9046	-49	-53	149	1029	78581	1028	72373635
-510	164	4066	-848	-842	-9045	-49	-53	149	1030	78681	1029	72373637
-501	151	4050	-850	-850	-9047	-53	-53	143	1031	78734	1030	72373646
-525	159	4051	-847	-849	-9078	-53	-53	143	1032	78834	1031	72373646
-527	150	4073	-847	-841	-9065	-56	-52	144	1033	78887	1032	72373682
-502	157	4054	-849	-840	-9043	-56	-52	144	1034	78988	1033	72373683
-523	144	4067	-853	-843	-9055	-55	-53	155	1035	79041	1034	72373689
-506	145	4096	-852	-842	-9083	-55	-53	155	1036	79141	1035	72373690
-504	141	4056	-856	-841	-9056	-65	-37	143	1037	79194	1036	72373690
-530	148	4080	-848	-842	-9061	-65	-37	143	1038	79295	1037	72373691
-515	153	4054	-849	-848	-9075	-54	-40	156	1039	79348	1038	72373692
-496	148	4049	-852	-842	-9081	-54	-40	156	1040	79448	1039	72373695
-504	145	4052	-854	-842	-9088	-55	-31	153	1041	79501	1040	72373696
-506	164	4059	-853	-845	-9034	-55	-31	153	1042	79601	1041	72373700
-516	152	4062	-855	-842	-9052	-60	-34	158	1043	79654	1042	72373731
-508	132	4066	-853	-841	-9062	-60	-34	158	1044	79755	1043	72373731
-508	140	4068	-849	-845	-9037	-55	-25	167	1045	79808	1044	72373734
-527	154	4096	-848	-845	-9063	-55	-25	167	1046	79908	1045	72373735
-503	144	4085	-848	-845	-9083	-70	-14	150	1047	79961	1046	72373737
-518	153	4070	-848	-843	-9046	-70	-14	150	1048	80062	1047	72373739
-514	141	4071	-849	-844	-9040	-54	-28	174	1049	80115	1048	72373739
-488	143	4062	-855	-845	-9061	-54	-28	174	1050	80216	1049	72373744
-522	128	4062	-858	-844	-9067	-46	-2	170	1051	80269	1050	72373744
-499	130	4062	-853	-847	-9066	-46	-2	170	1052	80369	1051	72373748
-497	145	4058	-850	-846	-9059	-43	-15	169	1053	80422	1052	72373780
-507	162	4045	-850	-839	-9058	-43	-15	169	1054	80523	1053	72373780
-513	137	4055	-849	-843	-9059	-41	-7	171	1055	80575	1054	72373783
-508	152	4053	-849	-847	-9073	-41	-7	171	1056	80676	1055	72373784
-502	165	4050	-850	-844	-9082	-41	1	163	1057	80729	1056	72373787
-508	143	4070	-853	-843	-9088	-41	1	163	1058	80829	1057	72373788
-513	134	4036	-850	-841	-9059	-30	-14	168	1059	80882	1058	72373788
-496	147	4054	-846	-842	-9069	-30	-14	168	1060	80983	1059	72373792
-523	144	4070	-846	-839	-9105	-23	3	157	1061	81035	1060	72373793
-517	149	4062	-849	-843	-9067	-23	3	157	1062	81136	1061	72373828
-493	145	4067	-848	-850	-9066	-29	-15	161	1063	81189	1062	72373829
-523	143	4058	-851	-843	-9065	-29	-15	161	1064	81289	1063	72373831
-509	150	4069	-854	-845	-9065	-17	1	169	1065	81342	1064	72373832
-507	133	4065	-850	-840	-9043	-17	1	169	1066	81442	1065	72373833
-499	129	4029	-850	-837	-9044	-20	10	150	1067	81495	1066	72373836
-499	116	4046	-852	-842	-9052	-20	10	150	1068	81596	1067	72373836
-498	136	4045	-843	-841	-9076	-26	-6	156	1069	81648	1068	72373844
-501	157	4057	-846	-843	-9057	-26	-6	156	1070	81748	1069	72373845
-496	150	4060	-849	-843	-9066	-10	12	146	1071	81801	1070	72373845
-507	135	4068	-851	-844	-9091	-10	12	146	1072	81901	1071	72373853
-490	140	4063	-850	-847	-9051	-23	-1	159	1073	81954	1072	72373854
-501	151	4074	-852	-835	-9059	-23	-1	159	1074	82055	1073	72373857
-500	129	4068	-854	-843	-9069	-4	12	148	1075	82108	1074	72373895
-509	128	4062	-850	-844	-9070	-4	12	148	1076	82208	1075	72373900
-494	137	4081	-851	-842	-9046	-13	13	141	1077	82261	1076	72373900
-482	137	4026	-852	-846	-9058	-13	13	141	1078	82361	1077	72373902
-486	133	4081	-851	-842	-9054	-10	12	140	1079	82414	1078	72373903
-497	146	4026	-849	-840	-9086	-10	12	140	1080	82514	1079	72373903
-480	147	4054	-850	-840	-9064	2	18	132	1081	82567	1080	72373904
-521	145	4077	-850	-838	-9059	2	18	132	1082	82668	1081	72373909
-500	118	4059	-848	-843	-9057	-8	8	146	1083	82720	1082	72373909
-503	130	4048	-847	-837	-9063	-8	8	146	1084	82820	1083	72373913
-516	138	4070	-846	-836	-9077	5	21	135	1085	82873	1084	72373913
-481	126	4053	-852	-846	-9077	5	21	135	1086	82973	1085	72373914
-506	159	4064	-846	-839	-9030	2	20	138	1087	83026	1086	72373950
-506	139	4074	-849	-841	-9048	2	20	138	1088	83126	1087	72373950
-480	107	4043	-850	-844	-9055	-1	23	139	1089	83179	1088	72373953
-496	125	4052	-851	-843	-9053	-1	23	139	1090	83279	1089	72373955
-492	131	4043	-848	-840	-9066	3	31	125	1091	83332	1090	72373959
-486	126	4079	-849	-841	-9071	3	31	125	1092	83432	1091	72373959
-512	136	4057	-849	-838	-9083	7	25	131	1093	83485	1092	72373960
-487	123	4062	-847	-843	-9062	7	25	131	1094	83585	1093	72373961
-469	111	4093	-849	-841	-9062	14	30	126	1095	83638	1094	72373961
-483	134	4071	-848	-842	-9054	14	30	126	1096	83738	1095	72373969
-491	124	4069	-854	-846	-9062	13	35	133	1097	83791	1096	72374000
-479	115	4051	-853	-841	-9054	13	35	133	1098	83891	1097	72374000
-473	132	4070	-848	-842	-9082	13	37	131	1099	83944	1098	72374003
-484	147	4052	-850	-844	-9071	13	37	131	1100	84044	1099	72374003
-509	122	4070	-850	-846	-9061	18	42	124	1101	84097	1100	72374006
-484	133	4066	-846	-842	-9064	18	42	124	1102	84197	1101	72374007
-496	138	4060	-848	-843	-9060	17	41	121	1103	84250	1102	72374007
-477	118	4052	-852	-842	-9056	17	41	121	1104	84350	1103	72374011
-488	139	4052	-855	-838	-9048	22	38	116	1105	84403	1104	72374011
-480	119	4057	-852	-835	-9060	22	38	116	1106	84503	1105	72374014
-479	120	4082	-848	-843	-9065	17	41	121	1107	84556	1106	72374047
-505	123	4075	-848	-836	-9036	17	41	121	1108	84656	1107	72374048
-505	125	4079	-847	-841	-9076	24	44	118	1109	84709	1108	72374051
-488	137	4035	-847	-846	-9084	24	44	118	1110	84809	1109	72374051
-496	139	4072	-851	-842	-9076	26	46	116	1111	84862	1110	72374054
-479	130	4050	-850	-846	-9046	26	46	116	1112	84962	1111	72374055
-484	122	4066	-847	-840	-9052	30	42	110	1113	85015	1112	72374055
-493	116	4066	-850	-843	-9075	30	42	110	1114	85115	1113	72374060
-463	132	4063	-850	-847	-9065	35	47	105	1115	85168	1114	72374060
-491	125	4058	-849	-842	-9084	35	47	105	1116	85269	1115	72374071
-485	134	4052	-849	-848	-9075	39	47	115	1117	85321	1116	72374071
-479	143	4061	-852	-844	-9059	39	47	115	1118	85421	1117	72374075
-488	134	4059	-851	-841	-9066	38	44	102	1119	85474	1118	72374110
-479	140	4042	-850	-845	-9073	38	44	102	1120	85574	1119	72374110
-488	114	4067	-852	-841	-9093	34	48	106	1121	85627	1120	72374113
-483	118	4071	-852	-838	-9078	34	48	106	1122	85727	1121	72374114
-497	129	4057	-848	-841	-9058	38	52	102	1123	85780	1122	72374116
-486	134	4064	-850	-840	-9067	38	52	102	1124	85880	1123	72374117
-478	132	4078	-847	-842	-9072	36	54	104	1125	85933	1124	72374118
-477	135	4035	-851	-840	-9065	36	54	104	1126	86033	1125	72374121
-491	124	4066	-851	-847	-9076	42	56	104	1127	86086	1126	72374121
-469	129	4067	-850	-847	-9074	42	56	104	1128	86186	1127	72374125
-471	132	4041	-851	-844	-9073	47	47	103	1129	86239	1128	72374160
-461	124	4068	-850	-839	-9059	47	47	103	1130	86339	1129	72374161
-481	141	4058	-853	-843	-9090	44	50	110	1131	86392	1130	72374162
-488	153	4090	-850	-839	-9095	44	50	110	1132	86492	1131	72374163
-481	131	4090	-848	-839	-9090	46	56	106	1133	86545	1132	72374165
-477	139	4049	-850	-844	-9078	46	56	106	1134	86645	1133	72374170
-484	137	4045	-849	-843	-9086	51	55	101	1135	86698	1134	72374170
-474	130	4086	-850	-843	-9061	51	55	101	1136	86798	1135	72374170
-475	119	4047	-849	-839	-9059	55	57	105	1137	86851	1136	72374171
-471	141	4068	-847	-840	-9094	55	57	105	1138	86951	1137	72374172
-469	127	4075	-848	-843	-9063	63	55	105	1139	87004	1138	72374181
-485	129	4067	-849	-848	-9073	63	55	105	1140	87104	1139	72374181
-480	127	4071	-850	-849	-9073	60	54	114	1141	87157	1140	72374217
-483	135	4079	-847	-844	-9078	60	54	114	1142	87257	1141	72374218
-460	150	4046	-845	-843	-9078	69	59	117	1143	87310	1142	72374221
-469	134	4056	-852	-844	-9071	69	59	117	1144	87410	1143	72374221
-474	135	4046	-853	-844	-9077	70	54	110	1145	87463	1144	72374223
-455	107	4062	-848	-848	-9072	70	54	110	1146	87563	1145	72374224
-464	154	4045	-846	-841	-9081	72	54	118	1147	87616	1146	72374225
-486	147	4052	-854	-841	-9067	72	54	118	1148	87716	1147	72374228
-483	136	4070	-849	-842	-9079	83	51	121	1149	87769	1148	72374229
-476	162	4056	-845	-839	-9050	83	51	121	1150	87869	1149	72374232
-469	144	4080	-850	-845	-9048	84	50	122	1151	87922	1150	72374264
-475	128	4066	-854	-842	-9082	84	50	122	1152	88022	1151	72374265
-480	148	4075	-850	-840	-9051	90	48	126	1153	88075	1152	72374268
-472	137	4062	-849	-846	-9064	90	48	126	1154	88175	1153	72374268
-468	143	4066	-849	-849	-9095	90	44	122	1155	88228	1154	72374271
-487	149	4051	-851	-840	-9091	90	44	122	1156	88328	1155	72374272
-463	154	4046	-854	-841	-9063	99	43	125	1157	88381	1156	72374272
-482	147	4088	-850	-844	-9047	99	43	125	1158	88481	1157	72374277
-454	159	4061	-850	-844	-9060	98	26	132	1159	88534	1158	72374277
-458	133	4078	-854	-841	-9067	98	26	132	1160	88634	1159	72374284
-469	136	4065	-850	-844	-9074	110	20	128	1161	88687	1160	72374318
-476	146	4049	-847	-844	-9065	110	20	128	1162	88787	1161	72374319
-467	155	4071	-850	-839	-9075	107	19	133	1163	88840	1162	72374321
-481	135	4067	-851	-843	-9058	107	19	133	1164	88940	1163	72374322
-480	166	4059	-847	-842	-9065	108	18	130	1165	88993	1164	72374324
-476	154	4056	-846	-840	-9078	108	18	130	1166	89093	1165	72374325
-471	154	4062	-851	-844	-9070	107	9	135	1167	89146	1166	72374325
-474	153	4082	-853	-842	-9071	107	9	135	1168	89246	1167	72374329
-470	155	4046	-842	-840	-9058	109	1	133	1169	89299	1168	72374329
-471	171	4038	-850	-844	-9072	109	1	133	1170	89399	1169	72374331
-472	165	4056	-856	-842	-9067	111	-9	141	1171	89452	1170	72374339
-471	150	4070	-846	-842	-9075	111	-9	141	1172	89552	1171	72374340
-470	159	4064	-847	-840	-9066	106	-12	134	1173	89605	1172	72374378
-479	142	4041	-851	-837	-9062	106	-12	134	1174	89705	1173	72374378
-462	137	4043	-852	-844	-9067	107	-23	135	1175	89758	1174	72374379
-461	137	4073	-847	-841	-9071	107	-23	135	1176	89858	1175	72374381
-483	159	4064	-847	-844	-9066	108	-20	136	1177	89911	1176	72374381
-485	150	4048	-849	-846	-9046	108	-20	136	1178	90011	1177	72374385
-485	159	4065	-849	-843	-9066	104	-28	136	1179	90064	1178	72374385
-460	159	4066	-848	-842	-9087	104	-28	136	1180	90164	1179	72374389
-465	156	4040	-851	-839	-9057	97	-37	141	1181	90217	1180	72374390
-464	162	4044	-848	-838	-9056	97	-37	141	1182	90317	1181	72374392
-476	167	4064	-847	-843	-9074	103	-43	141	1183	90370	1182	72374426
-479	166	4071	-851	-843	-9078	103	-43	141	1184	90470	1183	72374428
-475	158	4061	-851	-847	-9071	99	-41	143	1185	90523	1184	72374430
-473	168	4027	-847	-845	-9071	99	-41	143	1186	90624	1185	72374430
-470	150	4058	-849	-843	-9078	96	-38	136	1187	90676	1186	72374432
-466	148	4068	-855	-847	-9072	96	-38	136	1188	90776	1187	72374434
-488	161	4055	-848	-840	-9056	91	-45	141	1189	90829	1188	72374434
-482	184	4036	-845	-848	-9052	91	-45	141	1190	90930	1189	72374438
-464	156	4049	-853	-845	-9072	88	-48	138	1191	90982	1190	72374439
-482	155	4068	-851	-839	-9070	88	-48	138	1192	91082	1191	72374441
-464	178	4056	-844	-842	-9040	86	-54	148	1193	91135	1192	72374475
-459	184	4065	-847	-838	-9045	86	-54	148	1194	91235	1193	72374476
-473	157	4092	-852	-841	-9065	79	-59	149	1195	91288	1194	72374479
-461	162	4035	-853	-845	-9030	79	-59	149	1196	91388	1195	72374479
-469	174	4071	-849	-839	-9072	77	-57	141	1197	91441	1196	72374481
-456	163	4065	-853	-839	-9072	77	-57	141	1198	91541	1197	72374482
-474	152	4070	-854	-837	-9040	78	-64	142	1199	91594	1198	72374483
-486	161	4063	-848	-844	-9061	78	-64	142	1200	91694	1199	72374489
-461	162	4069	-850	-841	-9071	75	-67	147	1201	91747	1200	72374490
-484	190	4054	-852	-842	-9066	75	-67	147	1202	91847	1201	72374495
-474	161	4012	-849	-846	-9073	71	-69	147	1203	91900	1202	72374500
-458	164	4055	-849	-838	-9068	71	-69	147	1204	92000	1203	72374501
-477	165	4070	-847	-833	-9078	68	-68	154	1205	92053	1204	72374535
-470	153	4052	-852	-846	-9060	68	-68	154	1206	92153	1205	72374535
-496	163	4052	-847	-844	-9067	64	-68	158	1207	92206	1206	72374543
-482	171	4062	-846	-841	-9064	64	-68	158	1208	92307	1207	72374544
-460	157	4055	-848	-846	-9074	60	-66	148	1209	92359	1208	72374546
-484	168	4068	-851	-842	-9072	60	-66	148	1210	92459	1209	72374548
-459	158	4072	-851	-847	-9038	60	-72	146	1211	92512	1210	72374548
-490	142	4053	-850	-841	-9076	60	-72	146	1212	92612	1211	72374551
-498	174	4054	-851	-840	-9083	59	-73	151	1213	92665	1212	72374551
-459	161	4066	-850	-842	-9070	59	-73	151	1214	92765	1213	72374553
-481	169	4053	-852	-841	-9077	55	-71	155	1215	92819	1214	72374561
-503	158	4031	-848	-843	-9079	55	-71	155	1216	92919	1215	72374562
-491	177	4053	-847	-844	-9085	51	-75	153	1217	92972	1216	72374571
-486	167	4085	-849	-837	-9083	51	-75	153	1218	93072	1217	72374571
-485	175	4058	-855	-843	-9074	45	-73	153	1219	93125	1218	72374575
-494	176	4068	-846	-842	-9067	45	-73	153	1220	93225	1219	72374609
-480	170	4047	-849	-837	-9062	49	-77	153	1221	93278	1220	72374609
-466	159	4071	-856	-843	-9070	49	-77	153	1222	93378	1221	72374612
-485	173	4065	-852	-842	-9073	44	-78	156	1223	93431	1222	72374613
-489	174	4024	-849	-843	-9067	44	-78	156	1224	93532	1223	72374615
-469	164	4034	-848	-843	-9085	42	-76	150	1225	93584	1224	72374618
-473	176	4061	-850	-840	-9084	42	-76	150	1226	93684	1225	72374619
-480	174	4064	-848	-847	-9059	39	-81	151	1227	93737	1226	72374620
-498	177	4053	-849	-838	-9052	39	-81	151	1228	93837	1227	72374621
-484	175	4065	-850	-842	-9084	39	-85	157	1229	93890	1228	72374623
-507	150	4076	-854	-843	-9076	39	-85	157	1230	93990	1229	72374656
-501	166	4068	-845	-840	-9050	34	-86	162	1231	94043	1230	72374656
-502	186	4043	-847	-841	-9068	34	-86	162	1232	94143	1231	72374659
-499	175	4054	-853	-846	-9055	33	-81	149	1233	94196	1232	72374660
-483	185	4057	-850	-843	-9054	33	-81	149	1234	94296	1233	72374663
-493	181	4055	-849	-840	-9066	27	-83	153	1235	94349	1234	72374663
-506	154	4058	-852	-839	-9061	27	-83	153	1236	94449	1235	72374664
-491	179	4069	-852	-845	-9074	30	-86	152	1237	94502	1236	72374668
-498	168	4071	-850	-845	-9055	30	-86	152	1238	94602	1237	72374669
-494	168	4075	-849	-839	-9058	25	-85	153	1239	94655	1238	72374704
-479	189	4068	-850	-845	-9095	25	-85	153	1240	94755	1239	72374704
-489	180	4059	-852	-837	-9052	27	-81	155	1241	94808	1240	72374708
-486	182	4039	-845	-840	-9047	27	-81	155	1242	94908	1241	72374709
-485	161	4072	-852	-840	-9056	16	-84	150	1243	94961	1242	72374709
-508	155	4065	-858	-842	-9060	16	-84	150	1244	95061	1243	72374711
-468	162	4055	-852	-841	-9064	18	-84	152	1245	95114	1244	72374712
-492	174	4045	-851	-841	-9053	18	-84	152	1246	95214	1245	72374713
-500	149	4073	-850	-841	-9070	16	-86	142	1247	95267	1246	72374718
-477	180	4076	-846	-844	-9041	16	-86	142	1248	95367	1247	72374719
-497	177	4062	-848	-845	-9058	13	-87	149	1249	95420	1248	72374754
-488	180	4047	-854	-846	-9068	13	-87	149	1250	95520	1249	72374759
-484	157	4055	-850	-844	-9063	15	-83	153	1251	95573	1250	72374760
-500	154	4051	-846	-838	-9054	15	-83	153	1252	95673	1251	72374761
-502	175	4064	-852	-843	-9055	6	-80	150	1253	95726	1252	72374762
-497	149	4071	-854	-843	-9081	6	-80	150	1254	95826	1253	72374763
-507	170	4069	-849	-843	-9095	6	-86	146	1255	95879	1254	72374764
-500	188	4065	-848	-839	-9057	6	-86	146	1256	95979	1255	72374764
-510	168	4072	-849	-840	-9069	-1	-85	147	1257	96032	1256	72374766
-490	171	4076	-851	-844	-9073	-1	-85	147	1258	96132	1257	72374772
-499	165	4064	-847	-840	-9062	1	-81	149	1259	96185	1258	72374801
-510	169	4090	-849	-843	-9065	1	-81	149	1260	96285	1259	72374802
-485	159	4087	-856	-847	-9094	-8	-82	148	1261	96338	1260	72374804
-492	158	4055	-850	-843	-9075	-8	-82	148	1262	96438	1261	72374806
-499	170	4017	-845	-847	-9088	-9	-81	145	1263	96491	1262	72374807
-488	159	4014	-854	-844	-9063	-9	-81	145	1264	96591	1263	72374808
-510	163	4057	-853	-842	-9071	-7	-79	149	1265	96644	1264	72374809
-509	170	4050	-848	-838	-9072	-7	-79	149	1266	96744	1265	72374812
-508	171	4052	-851	-836	-9070	-13	-81	143	1267	96797	1266	72374812
-502	166	4071	-855	-836	-9054	-13	-81	143	1268	96897	1267	72374816
-496	151	4059	-854	-842	-9053	-14	-74	144	1269	96950	1268	72374848
-508	168	4073	-847	-841	-9077	-14	-74	144	1270	97050	1269	72374849
-514	161	4080	-849	-847	-9071	-18	-78	144	1271	97103	1270	72374852
-491	155	4069	-852	-844	-9059	-18	-78	144	1272	97203	1271	72374852
-507	162	4054	-850	-845	-9071	-30	-68	136	1273	97256	1272	72374854
-503	154	4060	-848	-845	-9090	-30	-68	136	1274	97357	1273	72374856
-510	157	4062	-853	-843	-9058	-30	-76	140	1275	97410	1274	72374857
-505	151	4053	-850	-840	-9046	-30	-76	140	1276	97510	1275	72374861
-508	156	4068	-851	-840	-9071	-29	-71	133	1277	97563	1276	72374861
-501	159	4076	-850	-838	-9079	-29	-71	133	1278	97663	1277	72374865
-504	165	4047	-853	-840	-9063	-30	-68	142	1279	97716	1278	72374897
-503	173	4066	-852	-844	-9073	-30	-68	142	1280	97816	1279	72374898
-522	163	4057	-853	-840	-9067	-33	-71	143	1281	97869	1280	72374901
-503	160	4060	-851	-844	-9075	-33	-71	143	1282	97969	1281	72374901
-507	164	4077	-849	-847	-9058	-42	-62	138	1283	98022	1282	72374905
-496	155	4059	-853	-843	-9066	-42	-62	138	1284	98122	1283	72374905
-514	152	4074	-849	-842	-9097	-43	-65	139	1285	98175	1284	72374906
-531	176	4075	-844	-843	-9054	-43	-65	139	1286	98276	1285	72374910
-501	178	4031	-847	-847	-9063	-46	-58	140	1287	98329	1286	72374910
-508	150	4035	-851	-843	-9089	-46	-58	140	1288	98429	1287	72374945
-511	146	4055	-850	-848	-9057	-47	-55	149	1289	98482	1288	72374946
-492	165	4035	-848	-842	-9060	-47	-55	149	1290	98582	1289	72374949
-501	162	4066	-851	-841	-9076	-53	-53	143	1291	98635	1290	72374950
-501	133	4046	-856	-843	-9087	-53	-53	143	1292	98735	1291	72374952
-515	144	4058	-847	-839	-9050	-57	-43	137	1293	98788	1292	72374954
-513	146	4063	-841	-845	-9067	-57	-43	137	1294	98888	1293	72374956
-512	139	4077	-849	-848	-9076	-54	-50	150	1295	98941	1294	72374961
-505	155	4098	-848	-843	-9065	-54	-50	150	1296	99041	1295	72374961
-507	162	4071	-846	-844	-9050	-56	-44	152	1297	99094	1296	72374961
-521	146	4038	-854	-845	-9076	-56	-44	152	1298	99194	1297	72374971
-523	125	4058	-852	-841	-9072	-60	-42	156	1299	99247	1298	72374971
-477	135	4040	-846	-843	-9044	-60	-42	156	1300	99347	1299	72374975
-501	147	4087	-847	-840	-9079	-56	-46	154	1301	99400	1300	72375009
-509	142	4099	-848	-843	-9094	-56	-46	154	1302	99500	1301	72375009
-522	148	4086	-852	-846	-9065	-62	-32	152	1303	99553	1302	72375012
-519	166	4051	-849	-839	-9048	-62	-32	152	1304	99653	1303	72375012
-508	135	4071	-850	-843	-9074	-53	-29	157	1305	99706	1304	72375015
-528	140	4071	-854	-839	-9086	-53	-29	157	1306	99806	1305	72375016
-512	130	4105	-848	-840	-9051	-64	-8	158	1307	99859	1306	72375016
-490	142	4071	-846	-850	-9077	-64	-8	158	1308	99959	1307	72375020
-508	146	4063	-847	-848	-9080	-55	-27	167	1309	100012	1308	72375020
-519	143	4035	-848	-847	-9067	-55	-27	167	1310	100112	1309	72375031
-501	161	4044	-846	-846	-9064	-49	-17	173	1311	100165	1310	72375031
-526	165	4077	-852	-837	-9082	-49	-17	173	1312	100265	1311	72375034
-515	152	4054	-854	-837	-9083	-49	-9	169	1313	100318	1312	72375067
-491	137	4074	-850	-837	-9057	-49	-9	169	1314	100418	1313	72375068
-504	145	4063	-850	-840	-9048	-32	-22	174	1315	100471	1314	72375071
-497	122	4084	-852	-842	-9065	-32	-22	174	1316	100571	1315	72375071
-516	141	4056	-847	-840	-9055	-34	8	162	1317	100624	1316	72375073
-509	141	4067	-846	-843	-9050	-34	8	162	1318	100725	1317	72375074
-503	158	4060	-849	-844	-9079	-44	-14	168	1319	100777	1318	72375075
-514	137	4070	-848	-844	-9085	-44	-14	168	1320	100877	1319	72375078
-501	145	4057	-843	-843	-9060	-22	-6	172	1321	100930	1320	72375078
-510	139	4057	-848	-843	-9068	-22	-6	172	1322	101031	1321	72375084
-501	125	4070	-851	-841	-9083	-27	-7	159	1323	101084	1322	72375117
-491	132	4064	-849	-839	-9066	-27	-7	159	1324	101185	1323	72375119
-522	136	4048	-846	-837	-9044	-28	-14	168	1325	101238	1324	72375121
-486	142	4044	-849	-841	-9073	-28	-14	168	1326	101339	1325	72375121
-508	152	4077	-850	-841	-9071	-22	6	146	1327	101392	1326	72375123
-502	134	4066	-851	-838	-9071	-22	6	146	1328	101492	1327	72375124
-492	153	4059	-851	-839	-9055	-23	-7	159	1329	101545	1328	72375125
-514	140	4051	-853	-838	-9056	-23	-7	159	1330	101645	1329	72375128
-500	128	4066	-851	-848	-9053	-10	6	154	1331	101698	1330	72375129
-514	135	4045	-851	-844	-9064	-10	6	154	1332	101799	1331	72375132
-518	149	4072	-853	-840	-9078	-21	7	149	1333	101851	1332	72375175
-509	133	4060	-850	-843	-9069	-21	7	149	1334	101952	1333	72375185
-504	135	4058	-851	-839	-9057	-14	2	152	1335	102005	1334	72375186
-502	135	4061	-848	-839	-9057	-14	2	152	1336	102105	1335	72375190
-490	135	4054	-854	-842	-9067	-6	16	142	1337	102158	1336	72375190
-503	130	4063	-855	-837	-9080	-6	16	142	1338	102259	1337	72375191
-491	133	4062	-853	-842	-9058	-16	8	148	1339	102312	1338	72375191
-478	131	4086	-852	-844	-9071	-16	8	148	1340	102412	1339	72375191
-503	122	4072	-847	-844	-9071	3	23	137	1341	102465	1340	72375192
-503	131	4059	-850	-843	-9059	3	23	137	1342	102565	1341	72375192
-495	141	4077	-853	-844	-9058	-9	11	137	1343	102618	1342	72375192
-499	147	4063	-851	-840	-9045	-9	11	137	1344	102718	1343	72375194
-512	122	4047	-851	-845	-9063	0	16	144	1345	102771	1344	72375228
-491	137	4060	-849	-840	-9055	0	16	144	1346	102871	1345	72375229
-507	130	4061	-847	-839	-9074	5	23	135	1347	102924	1346	72375231
-519	135	4057	-848	-836	-9074	5	23	135	1348	103024	1347	72375231
-507	143	4086	-850	-839	-9072	-2	24	136	1349	103077	1348	72375234
-488	140	4074	-852	-844	-9043	-2	24	136	1350	103177	1349	72375235
-510	142	4069	-854	-844	-9066	7	27	131	1351	103230	1350	72375235
-495	148	4040	-852	-845	-9053	7	27	131	1352	103330	1351	72375238
-484	140	4066	-853	-841	-9043	3	29	131	1353	103383	1352	72375239
-493	104	4047	-853	-840	-9089	3	29	131	1354	103483	1353	72375242
-477	131	4034	-851	-841	-9055	7	29	131	1355	103536	1354	72375276
-485	135	4072	-847	-836	-9035	7	29	131	1356	103636	1355	72375277
-491	130	4051	-852	-841	-9045	12	24	134	1357	103689	1356	72375280
-482	133	4054	-852	-840	-9062	12	24	134	1358	103789	1357	72375280
-503	140	4066	-848	-833	-9049	13	37	129	1359	103842	1358	72375283
-481	132	4054	-852	-840	-9030	13	37	129	1360	103942	1359	72375284
-488	114	4060	-854	-838	-9070	19	39	119	1361	103995	1360	72375284
-505	124	4064	-849	-840	-9082	19	39	119	1362	104095	1361	72375289
-479	143	4041	-848	-845	-9058	16	40	124	1363	104148	1362	72375291
-491	124	4060	-852	-843	-9065	16	40	124	1364	104248	1363	72375300
-493	141	4057	-849	-839	-9083	18	40	126	1365	104301	1364	72375300
-469	144	4085	-848	-841	-9063	18	40	126	1366	104402	1365	72375302
-487	147	4043	-848	-844	-9061	26	40	124	1367	104454	1366	72375335
-495	121	4060	-852	-841	-9064	26	40	124	1368	104554	1367	72375335
-487	125	4064	-852	-837	-9051	27	39	119	1369	104607	1368	72375338
-474	133	4062	-848	-842	-9055	27	39	119	1370	104707	1369	72375339
-489	128	4074	-846	-838	-9046	28	44	106	1371	104760	1370	72375341
-485	118	4099	-849	-840	-9067	28	44	106	1372	104860	1371	72375342
-492	134	4073	-845	-842	-9067	25	45	119	1373	104913	1372	72375343
-482	132	4072	-848	-843	-9046	25	45	119	1374	105013	1373	72375346
-476	121	4055	-852	-843	-9052	29	45	111	1375	105066	1374	72375346
-486	133	4048	-849	-839	-9051	29	45	111	1376	105166	1375	72375350
-489	123	4082	-848	-841	-9059	34	46	114	1377	105219	1376	72375382
-480	133	4048	-848	-847	-9089	34	46	114	1378	105319	1377	72375383
-502	143	4039	-847	-840	-9087	37	47	109	1379	105372	1378	72375386
-475	131	4044	-850	-841	-9060	37	47	109	1380	105472	1379	72375390
-472	150	4043	-848	-841	-9059	37	51	101	1381	105525	1380	72375390
-498	143	4082	-851	-836	-9063	37	51	101	1382	105625	1381	72375394
-486	123	4079	-852	-835	-9053	34	56	104	1383	105678	1382	72375395
-472	144	4098	-851	-842	-9057	34	56	104	1384	105778	1383	72375399
-494	118	4059	-851	-839	-9067	39	51	103	1385	105831	1384	72375399
-461	126	4073	-852	-841	-9056	39	51	103	1386	105931	1385	72375430
-467	123	4058	-849	-842	-9046	39	49	111	1387	105984	1386	72375430
-498	128	4081	-847	-842	-9072	39	49	111	1388	106085	1387	72375432
-480	122	4059	-850	-848	-9057	36	62	110	1389	106137	1388	72375433
-464	145	4040	-848	-845	-9043	36	62	110	1390	106237	1389	72375434
-481	139	4033	-849	-845	-9062	43	47	99	1391	106290	1390	72375437
-469	134	4047	-857	-846	-9059	43	47	99	1392	106390	1391	72375439
-467	124	4085	-853	-837	-9091	42	52	110	1393	106443	1392	72375440
-457	123	4066	-845	-841	-9049	42	52	110	1394	106543	1393	72375446
-470	119	4064	-849	-839	-9063	51	51	107	1395	106596	1394	72375448
-480	129	4095	-850	-840	-9088	51	51	107	1396	106696	1395	72375481
-479	113	4054	-847	-838	-9063	54	52	114	1397	106749	1396	72375482
-464	141	4036	-845	-842	-9064	54	52	114	1398	106849	1397	72375484
-458	152	4065	-852	-843	-9057	51	51	109	1399	106902	1398	72375485
-470	138	4072	-853	-844	-9059	51	51	109	1400	107002	1399	72375485
-480	136	4072	-851	-842	-9061	62	54	106	1401	107055	1400	72375489
-456	144	4058	-849	-848	-9054	62	54	106	1402	107155	1401	72375489
-464	149	4077	-854	-840	-9073	62	60	110	1403	107208	1402	72375491
-469	146	4047	-850	-843	-9081	62	60	110	1404	107308	1403	72375494
-473	142	4069	-854	-842	-9055	65	55	109	1405	107361	1404	72375494
-474	142	4037	-851	-840	-9064	65	55	109	1406	107461	1405	72375529
-482	143	4028	-854	-844	-9064	73	53	117	1407	107514	1406	72375529
-449	140	4077	-852	-843	-9090	73	53	117	1408	107614	1407	72375531
-457	140	4061	-854	-843	-9069	69	53	121	1409	107667	1408	72375532
-453	138	4040	-852	-842	-9087	69	53	121	1410	107768	1409	72375533
-484	144	4078	-850	-841	-9080	82	54	116	1411	107820	1410	72375536
-482	142	4065	-846	-845	-9061	82	54	116	1412	107921	1411	72375536
-463	152	4056	-852	-838	-9065	87	51	121	1413	107973	1412	72375539
-476	132	4063	-846	-843	-9076	87	51	121	1414	108073	1413	72375540
-463	136	4044	-844	-848	-9064	100	44	122	1415	108127	1414	72375540
-476	132	4047	-851	-840	-9085	100	44	122	1416	108227	1415	72375579
-478	143	4036	-851	-845	-9074	95	43	129	1417	108280	1416	72375580
-467	159	4056	-850	-844	-9092	95	43	129	1418	108380	1417	72375581
-469	158	4094	-849	-843	-9062	101	43	125	1419	108433	1418	72375582
-464	147	4072	-849	-840	-9075	101	43	125	1420	108534	1419	72375583
-471	157	4071	-850	-836	-9083	100	30	128	1421	108586	1420	72375584
-474	139	4048	-852	-841	-9059	100	30	128	1422	108686	1421	72375584
-448	131	4047	-853	-844	-9089	106	32	124	1423	108739	1422	72375591
-466	134	4069	-849	-842	-9058	106	32	124	1424	108839	1423	72375591
-458	156	4074	-848	-841	-9073	104	18	130	1425	108892	1424	72375593
-479	124	4062	-852	-844	-9066	104	18	130	1426	108993	1425	72375629
-482	150	4072	-848	-843	-9064	109	13	135	1427	109045	1426	72375630
-461	160	4047	-848	-850	-9063	109	13	135	1428	109145	1427	72375631
-475	155	4055	-851	-846	-9066	115	5	137	1429	109198	1428	72375633
-470	155	4037	-851	-841	-9084	115	5	137	1430	109298	1429	72375640
-469	165	4082	-850	-840	-9079	111	-1	131	1431	109351	1430	72375641
-468	147	4034	-851	-841	-9061	111	-1	131	1432	109451	1431	72375641
-456	145	4073	-853	-843	-9067	112	-4	128	1433	109504	1432	72375642
-463	148	4058	-852	-843	-9071	112	-4	128	1434	109605	1433	72375642
-486	155	4028	-849	-842	-9071	109	-11	137	1435	109657	1434	72375643
-457	168	4075	-852	-843	-9066	109	-11	137	1436	109757	1435	72375675
-481	154	4071	-852	-838	-9044	105	-23	141	1437	109810	1436	72375675
-479	161	4059	-848	-840	-9080	105	-23	141	1438	109910	1437	72375678
-450	146	4073	-848	-847	-9051	106	-22	138	1439	109963	1438	72375679
-478	155	4036	-845	-843	-9053	106	-22	138	1440	110064	1439	72375681
-455	146	4066	-848	-843	-9064	105	-29	143	1441	110117	1440	72375682
-478	154	4042	-851	-850	-9070	105	-29	143	1442	110217	1441	72375682
-472	162	4048	-849	-844	-9051	96	-34	140	1443	110270	1442	72375687
-455	152	4064	-853	-847	-9060	96	-34	140	1444	110371	1443	72375689
-466	159	4061	-850	-840	-9058	95	-41	143	1445	110423	1444	72375722
-474	131	4027	-854	-844	-9075	95	-41	143	1446	110523	1445	72375722
-467	145	4036	-852	-845	-9055	94	-42	144	1447	110576	1446	72375722
-487	167	4073	-844	-840	-9052	94	-42	144	1448	110677	1447	72375726
-458	161	4080	-850	-849	-9070	91	-43	139	1449	110729	1448	72375726
-466	143	4059	-856	-846	-9047	91	-43	139	1450	110829	1449	72375730
-461	155	4014	-846	-842	-9077	90	-50	144	1451	110882	1450	72375730
-491	180	4041	-846	-841	-9070	90	-50	144	1452	110982	1451	72375732
-476	172	4071	-853	-840	-9077	84	-50	140	1453	111035	1452	72375738
-464	167	4099	-848	-841	-9066	84	-50	140	1454	111135	1453	72375739
-471	171	4086	-845	-842	-9071	86	-56	152	1455	111188	1454	72375749
-461	169	4031	-849	-845	-9069	86	-56	152	1456	111288	1455	72375749
-463	158	4019	-857	-846	-9052	82	-56	148	1457	111341	1456	72375751
-485	174	4051	-849	-841	-9064	82	-56	148	1458	111441	1457	72375785
-462	170	4029	-845	-843	-9079	84	-58	146	1459	111494	1458	72375786
-454	177	4042	-851	-840	-9052	84	-58	146	1460	111594	1459	72375793
-491	153	4045	-853	-840	-9060	79	-57	149	1461	111647	1460	72375795
-464	158	4040	-849	-846	-9057	79	-57	149	1462	111747	1461	72375796
-502	168	4044	-847	-840	-9058	69	-67	143	1463	111800	1462	72375817
-490	153	4077	-852	-840	-9058	69	-67	143	1464	111900	1463	72375818
-492	187	4059	-847	-840	-9081	71	-69	143	1465	111953	1464	72375821
-492	170	4090	-848	-839	-9071	71	-69	143	1466	112053	1465	72375821
-460	166	4068	-852	-845	-9063	67	-69	149	1467	112106	1466	72375823
-476	164	4071	-847	-838	-9069	67	-69	149	1468	112206	1467	72375825
-475	140	4056	-852	-843	-9033	68	-64	148	1469	112259	1468	72375825
-471	155	4060	-853	-844	-9046	68	-64	148	1470	112359	1469	72375828
-478	168	4077	-849	-842	-9048	59	-79	151	1471	112412	1470	72375829
-465	162	4055	-852	-844	-9064	59	-79	151	1472	112512	1471	72375831
-455	159	4070	-854	-842	-9063	59	-71	153	1473	112565	1472	72375832
-485	156	4053	-848	-837	-9049	59	-71	153	1474	112665	1473	72375833
-476	167	4049	-851	-841	-9039	58	-76	154	1475	112718	1474	72375869
-474	176	4053	-852	-840	-9059	58	-76	154	1476	112818	1475	72375869
-497	164	4058	-851	-837	-9069	55	-79	153	1477	112871	1476	72375872
-467	152	4046	-851	-842	-9076	55	-79	153	1478	112971	1477	72375873
-482	164	4066	-850	-840	-9063	52	-78	152	1479	113024	1478	72375873
-464	164	4057	-850	-848	-9063	52	-78	152	1480	113124	1479	72375876
-486	164	4055	-850	-849	-9056	54	-80	146	1481	113177	1480	72375877
-482	167	4055	-850	-846	-9081	54	-80	146	1482	113277	1481	72375881
-483	172	4054	-851	-847	-9081	47	-81	153	1483	113330	1482	72375881
-473	181	4048	-851	-839	-9062	47	-81	153	1484	113430	1483	72375885
-492	156	4073	-858	-839	-9051	39	-85	155	1485	113483	1484	72375919
-488	161	4108	-853	-841	-9076	39	-85	155	1486	113583	1485	72375920
-457	175	4063	-848	-841	-9099	46	-80	154	1487	113636	1486	72375921
-472	175	4026	-851	-846	-9083	46	-80	154	1488	113736	1487	72375921
-510	156	4035	-854	-839	-9068	38	-76	146	1489	113789	1488	72375923
-492	179	4082	-847	-847	-9051	38	-76	146	1490	113889	1489	72375925
-466	193	4113	-843	-845	-9054	38	-82	156	1491	113942	1490	72375925
-483	189	4092	-850	-833	-9059	38	-82	156	1492	114042	1491	72375930
-479	151	4035	-855	-846	-9077	38	-80	154	1493	114095	1492	72375930
-481	165	4024	-850	-851	-9081	38	-80	154	1494	114195	1493	72375933
-484	166	4080	-848	-841	-9070	28	-82	158	1495	114248	1494	72375971
-503	166	4098	-850	-843	-9059	28	-82	158	1496	114348	1495	72375973
-484	179	4105	-850	-843	-9051	31	-87	151	1497	114401	1496	72375974
-466	179	4031	-851	-845	-9069	31	-87	151	1498	114501	1497	72375975
-502	181	4026	-852	-837	-9064	26	-88	152	1499	114554	1498	72375975
-502	150	4027	-856	-838	-9050	26	-88	152	1500	114654	1499	72375980
-482	168	4049	-852	-842	-9066	27	-81	153	1501	114707	1500	72375981
-481	168	4094	-845	-837	-9080	27	-81	153	1502	114807	1501	72375981
-494	171	4085	-848	-845	-9081	24	-80	150	1503	114860	1502	72375982
-491	166	4058	-855	-852	-9085	24	-80	150	1504	114960	1503	72376013
-518	177	4024	-849	-841	-9078	26	-84	150	1505	115013	1504	72376014
-510	193	4007	-847	-840	-9081	26	-84	150	1506	115113	1505	72376016
-499	164	4062	-852	-844	-9070	12	-82	150	1507	115166	1506	72376017
-488	156	4094	-848	-839	-9085	12	-82	150	1508	115266	1507	72376018
-488	179	4077	-848	-841	-9062	15	-81	151	1509	115319	1508	72376022
-481	171	4092	-854	-843	-9041	15	-81	151	1510	115419	1509	72376023
-489	159	4035	-853	-848	-9064	6	-84	150	1511	115472	1510	72376024
-521	153	4044	-853	-840	-9083	6	-84	150	1512	115572	1511	72376030
-497	176	4055	-847	-843	-9053	13	-91	151	1513	115625	1512	72376031
-481	184	4074	-848	-843	-9074	13	-91	151	1514	115725	1513	72376040
-499	168	4092	-858	-837	-9068	8	-86	152	1515	115778	1514	72376040
-494	148	4055	-850	-840	-9072	8	-86	152	1516	115878	1515	72376044
-495	161	4042	-848	-840	-9060	0	-78	158	1517	115931	1516	72376077
-516	168	4059	-854	-840	-9088	0	-78	158	1518	116031	1517	72376078
-496	164	4079	-851	-841	-9087	-2	-84	152	1519	116084	1518	72376081
-506	180	4056	-846	-842	-9067	-2	-84	152	1520	116184	1519	72376081
-522	176	4073	-850	-845	-9066	-9	-75	149	1521	116237	1520	72376083
-494	166	4040	-855	-847	-9083	-9	-75	149	1522	116337	1521	72376085
-508	148	4066	-853	-838	-9086	-2	-74	146	1523	116390	1522	72376085
-505	163	4063	-851	-845	-9062	-2	-74	146	1524	116490	1523	72376088
-503	164	4101	-852	-847	-9055	-8	-82	148	1525	116543	1524	72376089
-508	158	4112	-847	-840	-9075	-8	-82	148	1526	116643	1525	72376099
-510	179	4054	-845	-845	-9075	-10	-80	144	1527	116696	1526	72376100
-508	170	4018	-852	-846	-9065	-10	-80	144	1528	116796	1527	72376103
-521	144	4018	-859	-842	-9081	-18	-78	144	1529	116849	1528	72376136
-501	147	4079	-854	-844	-9073	-18	-78	144	1530	116950	1529	72376136
-495	189	4127	-842	-841	-9050	-20	-76	150	1531	117002	1530	72376139
-500	169	4073	-853	-840	-9105	-20	-76	150	1532	117102	1531	72376140
-505	129	3999	-863	-844	-9075	-19	-73	137	1533	117155	1532	72376142
-509	138	4024	-848	-845	-9051	-19	-73	137	1534	117255	1533	72376143
-523	185	4082	-836	-841	-9046	-25	-67	145	1535	117308	1534	72376144
-505	183	4098	-851	-839	-9079	-25	-67	145	1536	117408	1535	72376147
-506	146	4093	-858	-843	-9085	-27	-73	141	1537	117461	1536	72376147
-505	167	4037	-848	-848	-9057	-27	-73	141	1538	117561	1537	72376151
-526	170	4040	-844	-841	-9063	-34	-66	140	1539	117614	1538	72376184
-500	142	4056	-857	-840	-9054	-34	-66	140	1540	117714	1539	72376185
-523	137	4068	-859	-839	-9073	-31	-65	139	1541	117767	1540	72376188
-487	167	4079	-840	-844	-9049	-31	-65	139	1542	117867	1541	72376189
-501	185	4065	-847	-843	-9054	-36	-64	134	1543	117920	1542	72376191
-525	141	4050	-863	-840	-9091	-36	-64	134	1544	118021	1543	72376191
-511	148	4050	-852	-838	-9060	-43	-57	147	1545	118073	1544	72376191
-511	172	4031	-844	-842	-9047	-43	-57	147	1546	118173	1545	72376196
-501	160	4084	-855	-840	-9072	-47	-63	143	1547	118226	1546	72376197
-519	135	4092	-864	-843	-9047	-47	-63	143	1548	118326	1547	72376231
-528	144	4079	-850	-847	-9070	-45	-55	143	1549	118379	1548	72376231
-508	176	4047	-838	-843	-9077	-45	-55	143	1550	118479	1549	72376233
-507	160	4047	-855	-847	-9058	-46	-62	146	1551	118532	1550	72376234
-512	156	4092	-857	-847	-9069	-46	-62	146	1552	118633	1551	72376235
-515	152	4079	-843	-840	-9061	-55	-47	141	1553	118685	1552	72376238
-486	168	4052	-849	-844	-9104	-55	-47	141	1554	118785	1553	72376239
-522	137	4058	-861	-840	-9082	-57	-45	147	1555	118838	1554	72376241
-515	107	4042	-854	-844	-9088	-57	-45	147	1556	118938	1555	72376248
-520	150	4079	-846	-839	-9086	-56	-54	150	1557	118991	1556	72376250
-509	138	4089	-849	-843	-9079	-56	-54	150	1558	119092	1557	72376257
-508	134	4070	-855	-842	-9050	-61	-41	151	1559	119145	1558	72376257
-509	152	4065	-848	-838	-9080	-61	-41	151	1560	119245	1559	72376261
-509	157	4004	-849	-843	-9093	-53	-49	157	1561	119298	1560	72376295
-517	121	4042	-857	-845	-9057	-53	-49	157	1562	119398	1561	72376300
-501	124	4092	-848	-841	-9068	-65	-27	149	1563	119451	1562	72376301
-487	154	4099	-844	-844	-9084	-65	-27	149	1564	119551	1563	72376302
-512	148	4064	-850	-838	-9069	-62	-30	156	1565	119604	1564	72376303
-499	150	4031	-856	-847	-9059	-62	-30	156	1566	119704	1565	72376305
-510	152	4062	-850	-843	-9059	-57	-31	163	1567	119757	1566	72376310
-503	163	4083	-846	-838	-9058	-57	-31	163	1568	119857	1567	72376311
-507	138	4080	-850	-845	-9044	-61	-15	161	1569	119910	1568	72376311
-519	143	4057	-856	-847	-9062	-61	-15	161	1570	120010	1569	72376312
-523	118	4055	-856	-840	-9086	-50	-28	174	1571	120063	1570	72376318
-508	142	4072	-847	-842	-9054	-50	-28	174	1572	120163	1571	72376318
-513	159	4063	-842	-844	-9049	-51	-1	163	1573	120216	1572	72376353
-512	152	4073	-850	-843	-9080	-51	-1	163	1574	120316	1573	72376355
-510	145	4078	-852	-843	-9082	-49	-23	173	1575	120369	1574	72376357
-521	155	4073	-844	-841	-9057	-49	-23	173	1576	120469	1575	72376357
-521	167	4060	-848	-843	-9069	-41	-5	173	1577	120522	1576	72376359
-513	141	4040	-861	-841	-9062	-41	-5	173	1578	120622	1577	72376364
-498	129	4071	-854	-844	-9084	-43	-9	159	1579	120675	1578	72376369
-489	133	4074	-842	-841	-9038	-43	-9	159	1580	120775	1579	72376370
-513	149	4080	-852	-839	-9077	-31	-15	169	1581	120828	1580	72376371
-498	129	4083	-855	-846	-9067	-31	-15	169	1582	120928	1581	72376371
-496	160	4055	-843	-840	-9046	-25	5	159	1583	120981	1582	72376404
-501	138	4042	-850	-843	-9060	-25	5	159	1584	121081	1583	72376404
-471	118	4071	-859	-839	-9076	-35	-11	169	1585	121134	1584	72376407
-493	155	4082	-847	-841	-9067	-35	-11	169	1586	121234	1585	72376408
-519	137	4091	-845	-844	-9054	-18	4	156	1587	121287	1586	72376410
-504	132	4039	-848	-836	-9065	-18	4	156	1588	121387	1587	72376411
-502	130	4031	-852	-840	-9062	-24	0	150	1589	121440	1588	72376411
-510	137	4068	-851	-841	-9078	-24	0	150	1590	121540	1589	72376415
-503	145	4066	-853	-839	-9059	-19	-5	163	1591	121593	1590	72376415
-485	142	4065	-855	-846	-9081	-19	-5	163	1592	121693	1591	72376419
-481	145	4096	-850	-850	-9052	-11	17	147	1593	121746	1592	72376455
-516	129	4091	-850	-843	-9052	-11	17	147	1594	121846	1593	72376455
-503	122	4042	-849	-842	-9065	-24	2	154	1595	121899	1594	72376458
-504	131	4026	-852	-841	-9066	-24	2	154	1596	121999	1595	72376459
-518	148	4062	-848	-838	-9055	-4	16	140	1597	122052	1596	72376462
-498	152	4078	-846	-835	-9082	-4	16	140	1598	122152	1597	72376462
-510	145	4083	-854	-836	-9085	-20	14	136	1599	122205	1598	72376463
-491	141	4058	-854	-842	-9057	-20	14	136	1600	122305	1599	72376466
-506	129	4023	-854	-843	-9044	-10	10	142	1601	122358	1600	72376466
-505	123	4049	-853	-839	-9046	-10	10	142	1602	122458	1601	72376476
-477	130	4089	-851	-844	-9061	2	14	140	1603	122511	1602	72376477
-494	116	4095	-848	-842	-9035	2	14	140	1604	122611	1603	72376480
-497	135	4052	-842	-838	-9069	-5	11	143	1605	122664	1604	72376514
-500	147	4022	-848	-844	-9080	-5	11	143	1606	122764	1605	72376514
-501	118	4047	-848	-837	-9066	5	19	141	1607	122817	1606	72376518
-480	146	4070	-847	-836	-9059	5	19	141	1608	122917	1607	72376519
-509	150	4082	-850	-839	-9076	-4	24	134	1609	122970	1608	72376520
-489	120	4057	-855	-843	-9068	-4	24	134	1610	123070	1609	72376521
-495	103	4061	-854	-847	-9048	1	29	133	1611	123123	1610	72376522
-509	139	4062	-845	-839	-9064	1	29	133	1612	123223	1611	72376525
-496	137	4050	-848	-843	-9060	-1	27	131	1613	123276	1612	72376525
-510	141	4057	-855	-848	-9038	-1	27	131	1614	123376	1613	72376529
-502	154	4083	-849	-841	-9031	4	26	140	1615	123429	1614	72376562
-492	139	4056	-851	-845	-9061	4	26	140	1616	123530	1615	72376563
-497	126	4058	-854	-842	-9067	11	31	129	1617	123583	1616	72376568
-487	114	4027	-853	-843	-9049	11	31	129	1618	123683	1617	72376570
-470	132	4034	-847	-836	-9063	8	38	126	1619	123736	1618	72376571
-513	136	4048	-845	-838	-9077	8	38	126	1620	123836	1619	72376573
-490	134	4090	-849	-843	-9056	11	35	123	1621	123889	1620	72376574
-489	136	4064	-852	-839	-9025	11	35	123	1622	123989	1621	72376575
-493	123	4062	-849	-843	-9057	16	38	126	1623	124042	1622	72376576
-483	130	4043	-851	-849	-9057	16	38	126	1624	124142	1623	72376585
-487	124	4034	-851	-842	-9061	19	37	125	1625	124195	1624	72376585
-480	117	4051	-851	-844	-9071	19	37	125	1626	124295	1625	72376590
-493	125	4068	-844	-843	-9071	22	42	126	1627	124348	1626	72376621
-492	124	4053	-848	-840	-9060	22	42	126	1628	124448	1627	72376621
-467	127	4068	-848	-840	-9050	27	39	129	1629	124501	1628	72376624
-478	126	4050	-849	-841	-9051	27	39	129	1630	124601	1629	72376625
-483	135	4064	-844	-846	-9072	24	44	110	1631	124654	1630	72376627
-494	126	4057	-853	-843	-9066	24	44	110	1632	124754	1631	72376628
-497	118	4058	-858	-842	-9076	35	41	115	1633	124807	1632	72376629
-482	127	4039	-845	-842	-9061	35	41	115	1634	124907	1633	72376632
-485	134	4070	-847	-839	-9036	29	45	115	1635	124960	1634	72376633
-496	127	4064	-854	-840	-9056	29	45	115	1636	125060	1635	72376640
-484	126	4083	-852	-845	-9074	35	45	115	1637	125113	1636	72376670
-484	138	4058	-843	-848	-9054	35	45	115	1638	125213	1637	72376670
-483	118	4016	-849	-845	-9055	31	47	113	1639	125266	1638	72376673
-485	126	4008	-854	-846	-9053	31	47	113	1640	125366	1639	72376674
-473	149	4092	-847	-846	-9060	43	47	105	1641	125419	1640	72376676
-471	141	4059	-847	-840	-9080	43	47	105	1642	125519	1641	72376677
-489	109	4059	-859	-831	-9063	37	47	107	1643	125572	1642	72376677
-477	130	4060	-855	-841	-9072	37	47	107	1644	125672	1643	72376681
-487	151	4050	-846	-838	-9073	40	50	102	1645	125725	1644	72376681
-495	125	4054	-852	-830	-9055	40	50	102	1646	125825	1645	72376716
-474	107	4055	-855	-844	-9044	40	50	106	1647	125878	1646	72376716
-480	131	4085	-851	-846	-9051	40	50	106	1648	125978	1647	72376717
-487	142	4106	-844	-839	-9067	36	56	104	1649	126031	1648	72376720
-479	114	4052	-851	-845	-9052	36	56	104	1650	126131	1649	72376720
-484	123	4055	-848	-842	-9074	36	56	102	1651	126184	1650	72376723
-494	139	4028	-841	-842	-9077	36	56	102	1652	126284	1651	72376723
-480	137	4072	-852	-840	-9080	39	53	105	1653	126337	1652	72376726
-475	119	4086	-853	-838	-9058	39	53	105	1654	126437	1653	72376732
-484	123	4068	-847	-842	-9070	50	56	104	1655	126490	1654	72376732
-476	144	4034	-851	-837	-9049	50	56	104	1656	126590	1655	72376742
-475	118	4058	-856	-837	-9052	55	53	111	1657	126643	1656	72376742
-474	132	4069	-852	-843	-9074	55	53	111	1658	126743	1657	72376746
-485	139	4088	-844	-842	-9079	54	54	114	1659	126796	1658	72376783
-473	145	4077	-847	-843	-9062	54	54	114	1660	126896	1659	72376784
-477	136	4088	-853	-846	-9077	60	52	112	1661	126949	1660	72376786
-490	135	4053	-849	-844	-9073	60	52	112	1662	127049	1661	72376789
-457	149	4048	-846	-846	-9070	61	59	101	1663	127102	1662	72376789
-477	119	4034	-856	-843	-9076	61	59	101	1664	127202	1663	72376790
-470	132	4071	-852	-843	-9079	64	58	108	1665	127255	1664	72376790
-454	140	4035	-848	-835	-9099	64	58	108	1666	127355	1665	72376793
-476	150	4048	-851	-840	-9064	68	52	118	1667	127408	1666	72376793
-466	134	4049	-856	-843	-9059	68	52	118	1668	127508	1667	72376796
-490	123	4081	-852	-842	-9070	72	56	122	1669	127561	1668	72376830
-458	132	4070	-850	-842	-9058	72	56	122	1670	127661	1669	72376831
-461	136	4073	-859	-844	-9064	79	55	127	1671	127714	1670	72376834
-477	132	4087	-854	-842	-9097	79	55	127	1672	127814	1671	72376835
-453	139	4063	-848	-841	-9087	81	57	117	1673	127867	1672	72376836
-470	152	4047	-848	-840	-9081	81	57	117	1674	127967	1673	72376841
-477	128	4087	-854	-843	-9060	90	48	112	1675	128020	1674	72376842
-480	146	4087	-847	-849	-9076	90	48	112	1676	128120	1675	72376845
-479	130	4064	-842	-841	-9077	92	44	118	1677	128173	1676	72376849
-474	152	4036	-849	-844	-9050	92	44	118	1678	128273	1677	72376852
-464	136	4054	-853	-849	-9073	98	38	130	1679	128326	1678	72376852
-471	139	4055	-852	-840	-9083	98	38	130	1680	128426	1679	72376855
-475	154	4063	-850	-846	-9057	99	33	127	1681	128479	1680	72376889
-446	145	4062	-853	-845	-9073	99	33	127	1682	128579	1681	72376889
-474	159	4054	-853	-842	-9089	103	31	135	1683	128632	1682	72376892
-458	141	4086	-850	-843	-9041	103	31	135	1684	128732	1683	72376893
-463	152	4078	-846	-839	-9064	109	23	129	1685	128785	1684	72376895
-473	161	4082	-849	-845	-9092	109	23	129	1686	128885	1685	72376896
-466	117	4036	-854	-848	-9085	108	14	136	1687	128938	1686	72376896
-477	122	4005	-849	-842	-9055	108	14	136	1688	129038	1687	72376900
-468	153	4059	-841	-841	-9064	117	13	131	1689	129091	1688	72376900
-462	167	4046	-844	-848	-9077	117	13	131	1690	129191	1689	72376903
-475	134	4097	-860	-846	-9073	104	0	138	1691	129244	1690	72376936
-458	140	4051	-853	-845	-9067	104	0	138	1692	129344	1691	72376937
-470	162	4035	-842	-843	-9063	109	-5	133	1693	129397	1692	72376940
-481	152	4034	-857	-840	-9076	109	-5	133	1694	129497	1693	72376940
-473	114	4066	-864	-843	-9073	112	-6	134	1695	129550	1694	72376942
-459	151	4049	-842	-843	-9089	112	-6	134	1696	129650	1695	72376944
-443	179	4047	-843	-844	-9081	106	-12	134	1697	129703	1696	72376944
-469	154	4062	-861	-840	-9054	106	-12	134	1698	129803	1697	72376949
-487	148	4037	-850	-849	-9057	108	-30	136	1699	129856	1698	72376949
-461	171	4020	-842	-846	-9080	108	-30	136	1700	129956	1699	72376952
-468	170	4039	-849	-842	-9061	104	-30	136	1701	130009	1700	72376985
-473	143	4068	-856	-841	-9054	104	-30	136	1702	130109	1701	72376989
-466	170	4084	-844	-844	-9080	103	-35	141	1703	130162	1702	72376990
-464	160	4074	-848	-843	-9076	103	-35	141	1704	130262	1703	72376990
-454	162	4050	-858	-843	-9056	99	-35	135	1705	130315	1704	72376992
-483	150	4051	-850	-837	-9076	99	-35	135	1706	130415	1705	72376993
-472	169	4063	-848	-843	-9085	96	-38	140	1707	130468	1706	72376993
-463	155	4050	-852	-840	-9070	96	-38	140	1708	130568	1707	72376999
-476	159	4064	-852	-842	-9063	94	-46	144	1709	130621	1708	72377000
-477	147	4049	-852	-843	-9065	94	-46	144	1710	130721	1709	72377032
-456	155	4039	-847	-841	-9067	90	-50	148	1711	130774	1710	72377033
-491	146	4042	-850	-845	-9057	90	-50	148	1712	130874	1711	72377035
-470	158	4061	-848	-847	-9065	87	-49	145	1713	130927	1712	72377036
-490	176	4063	-842	-846	-9072	87	-49	145	1714	131027	1713	72377040
-471	153	4060	-852	-840	-9065	83	-49	139	1715	131080	1714	72377041
-502	156	4038	-853	-841	-9059	83	-49	139	1716	131180	1715	72377041
-463	178	4064	-846	-845	-9072	85	-53	143	1717	131233	1716	72377043
-461	156	4054	-853	-848	-9089	85	-53	143	1718	131333	1717	72377050
-485	150	4033	-856	-841	-9065	81	-61	145	1719	131386	1718	72377051
-452	157	4061	-845	-846	-9050	81	-61	145	1720	131487	1719	72377059
-470	161	4068	-850	-840	-9083	79	-61	151	1721	131539	1720	72377059
-485	157	4060	-856	-840	-9091	79	-61	151	1722	131639	1721	72377062
-473	159	4068	-855	-847	-9079	77	-65	147	1723	131692	1722	72377095
-486	176	4022	-846	-838	-9085	77	-65	147	1724	131792	1723	72377095
-484	170	4034	-851	-841	-9071	68	-62	144	1725	131845	1724	72377098
-481	139	4068	-853	-846	-9067	68	-62	144	1726	131945	1725	72377099
-483	165	4058	-843	-844	-9061	63	-61	147	1727	131998	1726	72377101
-476	171	4060	-844	-844	-9090	63	-61	147	1728	132098	1727	72377102
-472	157	4059	-854	-841	-9074	65	-65	151	1729	132151	1728	72377104
-473	163	4054	-850	-838	-9057	65	-65	151	1730	132251	1729	72377109
-463	195	4065	-848	-845	-9063	62	-70	146	1731	132304	1730	72377109
-490	177	4050	-849	-841	-9067	62	-70	146	1732	132404	1731	72377111
-485	154	4045	-854	-843	-9084	65	-81	159	1733	132457	1732	72377145
-492	170	4051	-851	-847	-9076	65	-81	159	1734	132557	1733	72377145
-478	173	4080	-846	-842	-9080	54	-74	156	1735	132610	1734	72377148
-470	146	4038	-852	-844	-9065	54	-74	156	1736	132710	1735	72377149
-473	171	4063	-849	-841	-9074	53	-77	149	1737	132763	1736	72377154
-490	163	4043	-846	-842	-9071	53	-77	149	1738	132863	1737	72377155
-482	168	4071	-847	-840	-9078	54	-72	150	1739	132916	1738	72377155
-493	164	4094	-849	-838	-9064	54	-72	150	1740	133016	1739	72377158
-475	179	4049	-846	-844	-9064	54	-82	154	1741	133069	1740	72377159
-473	161	4069	-849	-835	-9071	54	-82	154	1742	133169	1741	72377168
-472	165	4055	-854	-845	-9048	56	-82	154	1743	133222	1742	72377169
-472	161	4088	-851	-846	-9063	56	-82	154	1744	133322	1743	72377172
-496	178	4054	-849	-838	-9075	43	-79	155	1745	133375	1744	72377182
-472	167	4063	-853	-846	-9094	43	-79	155	1746	133475	1745	72377184
-483	167	4058	-852	-842	-9055	43	-77	157	1747	133528	1746	72377193
-494	169	4062	-853	-846	-9050	43	-77	157	1748	133628	1747	72377194
-476	171	4030	-851	-842	-9090	43	-85	153	1749	133681	1748	72377199
-511	149	4062	-854	-842	-9060	43	-85	153	1750	133781	1749	72377229
-504	163	4067	-849	-842	-9050	38	-88	156	1751	133834	1750	72377229
-477	185	4059	-844	-847	-9072	38	-88	156	1752	133934	1751	72377232
-490	183	4074	-850	-840	-9087	39	-83	159	1753	133987	1752	72377233
-492	167	4059	-856	-847	-9073	39	-83	159	1754	134087	1753	72377235
-503	171	4054	-847	-844	-9066	39	-77	157	1755	134140	1754	72377239
-513	174	4086	-852	-838	-9074	39	-77	157	1756	134240	1755	72377240
-492	160	4096	-856	-839	-9054	29	-83	153	1757	134293	1756	72377241
-503	182	4078	-850	-836	-9057	29	-83	153	1758	134393	1757	72377242
-485	177	4057	-848	-842	-9056	27	-83	151	1759	134446	1758	72377255
-467	166	4041	-855	-844	-9061	27	-83	151	1760	134546	1759	72377277
-495	181	4060	-853	-839	-9047	22	-88	158	1761	134599	1760	72377277
-487	193	4048	-849	-842	-9055	22	-88	158	1762	134699	1761	72377281
-492	163	4040	-847	-838	-9075	26	-80	156	1763	134752	1762	72377281
-494	156	4055	-853	-843	-9066	26	-80	156	1764	134852	1763	72377285
-505	141	4084	-849	-843	-9064	19	-77	149	1765	134905	1764	72377285
-496	174	4077	-847	-839	-9090	19	-77	149	1766	135005	1765	72377287
-517	164	4050	-852	-847	-9086	20	-82	144	1767	135058	1766	72377290
-497	166	4034	-850	-845	-9067	20	-82	144	1768	135158	1767	72377290
-478	182	4057	-846	-841	-9077	15	-85	153	1769	135211	1768	72377325
-495	167	4069	-849	-838	-9091	15	-85	153	1770	135311	1769	72377325
-491	169	4044	-849	-841	-9067	12	-88	152	1771	135364	1770	72377327
-479	157	4062	-852	-844	-9090	12	-88	152	1772	135464	1771	72377328
-491	175	4057	-851	-844	-9080	12	-84	148	1773	135517	1772	72377329
-503	170	4058	-854	-844	-9065	12	-84	148	1774	135617	1773	72377332
-483	158	4048	-852	-849	-9061	7	-85	143	1775	135670	1774	72377333
-502	171	4046	-849	-842	-9061	7	-85	143	1776	135771	1775	72377335
-507	173	4058	-849	-839	-9062	6	-80	148	1777	135823	1776	72377341
-503	153	4072	-853	-840	-9069	6	-80	148	1778	135923	1777	72377341
-503	166	4072	-853	-843	-9050	4	-82	150	1779	135976	1778	72377351
-505	168	4059	-851	-846	-9059	4	-82	150	1780	136076	1779	72377351
-507	180	4059	-852	-844	-9068	-3	-79	147	1781	136129	1780	72377354
-519	157	4084	-844	-839	-9071	-3	-79	147	1782	136229	1781	72377388
-477	169	4044	-846	-842	-9080	-1	-79	147	1783	136282	1782	72377389
-496	164	4038	-850	-843	-9053	-1	-79	147	1784	136382	1783	72377392
-511	167	4053	-854	-845	-9054	-14	-82	146	1785	136435	1784	72377392
-500	171	4058	-847	-842	-9054	-14	-82	146	1786	136535	1785	72377395
-497	168	4065	-850	-838	-9084	-5	-83	143	1787	136588	1786	72377396
-492	161	4073	-857	-842	-9066	-5	-83	143	1788	136688	1787	72377396
-503	149	4072	-851	-842	-9043	-11	-77	141	1789	136741	1788	72377399
-507	183	4077	-842	-837	-9065	-11	-77	141	1790	136841	1789	72377400
-510	167	4034	-850	-841	-9072	-14	-78	142	1791	136894	1790	72377411
-497	167	4060	-857	-842	-9070	-14	-78	142	1792	136994	1791	72377411
-503	169	4040	-846	-844	-9078	-22	-74	146	1793	137047	1792	72377413
-485	182	4018	-844	-844	-9088	-22	-74	146	1794	137147	1793	72377447
-500	149	4081	-857	-842	-9090	-21	-75	145	1795	137200	1794	72377448
-495	158	4048	-855	-840	-9072	-21	-75	145	1796	137300	1795	72377449
-504	166	4049	-845	-841	-9076	-25	-75	143	1797	137353	1796	72377450
-514	157	4048	-850	-843	-9069	-25	-75	143	1798	137453	1797	72377452
-502	154	4088	-856	-843	-9075	-30	-70	142	1799	137506	1798	72377453
-498	172	4052	-846	-841	-9065	-30	-70	142	1800	137606	1799	72377453
-504	151	4062	-845	-839	-9071	-37	-73	135	1801	137659	1800	72377461
-513	143	4058	-856	-843	-9052	-37	-73	135	1802	137759	1801	72377461
-508	153	4066	-850	-842	-9065	-35	-69	135	1803	137812	1802	72377463
-491	161	4066	-848	-842	-9078	-35	-69	135	1804	137912	1803	72377499
-509	152	4047	-852	-842	-9095	-37	-65	141	1805	137965	1804	72377500
-484	151	4043	-851	-847	-9080	-37	-65	141	1806	138065	1805	72377501
-495	143	4078	-843	-842	-9084	-38	-66	142	1807	138118	1806	72377501
-518	177	4084	-845	-843	-9070	-38	-66	142	1808	138218	1807	72377502
-498	146	4062	-853	-848	-9073	-45	-55	135	1809	138271	1808	72377504
-512	148	4065	-853	-847	-9051	-45	-55	135	1810	138371	1809	72377504
-505	159	4064	-850	-841	-9078	-50	-54	140	1811	138424	1810	72377509
-514	155	4063	-853	-844	-9066	-50	-54	140	1812	138525	1811	72377509
-514	154	4074	-851	-839	-9045	-50	-54	146	1813	138577	1812	72377512
-492	168	4038	-845	-842	-9063	-50	-54	146	1814	138677	1813	72377545
-512	160	4068	-854	-841	-9047	-58	-44	144	1815	138730	1814	72377545
-524	156	4077	-855	-843	-9061	-58	-44	144	1816	138830	1815	72377548
-511	147	4065	-848	-846	-9060	-51	-51	149	1817	138883	1816	72377549
-507	142	4081	-852	-841	-9088	-51	-51	149	1818	138983	1817	72377551
-522	142	4071	-857	-848	-9071	-63	-35	145	1819	139036	1818	72377553
-504	152	4067	-848	-849	-9089	-63	-35	145	1820	139136	1819	72377553
-502	151	4052	-843	-842	-9064	-59	-41	153	1821	139189	1820	72377557
-496	154	4047	-851	-849	-9070	-59	-41	153	1822	139289	1821	72377558
-515	164	4085	-855	-839	-9070	-62	-42	156	1823	139342	1822	72377592
-502	175	4050	-847	-842	-9058	-62	-42	156	1824	139442	1823	72377593
-487	178	4064	-849	-845	-9084	-64	-20	158	1825	139495	1824	72377595
-512	134	4071	-855	-844	-9090	-64	-20	158	1826	139595	1825	72377596
-510	146	4060	-850	-843	-9094	-52	-36	166	1827	139648	1826	72377598
-496	140	4076	-849	-838	-9078	-52	-36	166	1828	139748	1827	72377600
-525	152	4084	-851	-841	-9091	-56	-14	154	1829	139801	1828	72377600
-495	140	4056	-849	-844	-9076	-56	-14	154	1830	139901	1829	72377602
-518	147	4082	-848	-842	-9062	-51	-27	171	1831	139954	1830	72377609
-500	139	4044	-849	-843	-9081	-51	-27	171	1832	140054	1831	72377609
-502	141	4070	-850	-846	-9053	-47	-15	173	1833	140107	1832	72377642
-524	118	4062	-851	-839	-9064	-47	-15	173	1834	140207	1833	72377643
-501	150	4065	-848	-842	-9068	-54	-10	170	1835	140260	1834	72377645
-510	135	4065	-851	-844	-9051	-54	-10	170	1836	140360	1835	72377646
-511	138	4063	-849	-843	-9075	-42	-18	170	1837	140413	1836	72377648
-511	143	4074	-846	-840	-9067	-42	-18	170	1838	140513	1837	72377650
-507	140	4069	-850	-845	-9067	-36	4	160	1839	140566	1838	72377651
-501	141	4082	-855	-850	-9055	-36	4	160	1840	140666	1839	72377652
-513	134	4071	-850	-844	-9058	-38	-16	170	1841	140719	1840	72377655
-497	125	4057	-852	-839	-9046	-38	-16	170	1842	140819	1841	72377656
-498	139	4082	-853	-844	-9073	-28	0	168	1843	140872	1842	72377690
-512	129	4074	-842	-843	-9087	-28	0	168	1844	140972	1843	72377690
-518	141	4066	-846	-841	-9077	-31	-3	159	1845	141025	1844	72377693
-497	140	4090	-846	-842	-9085	-31	-3	159	1846	141125	1845	72377694
-487	146	4095	-846	-840	-9088	-24	-4	164	1847	141178	1846	72377694
-518	155	4064	-851	-846	-9048	-24	-4	164	1848	141278	1847	72377697
-521	135	4067	-854	-841	-9071	-18	8	152	1849	141331	1848	72377699
