Accl X	Accl Y	Accl Z	Gyro X	Gyro Y	Gyro Z	Mag X	Mag Y	Mag Z	RPkt#	Rtime	LPkt#	Ltime
-495	192	4059	-842	-841	-9090	50	-58	162	0	0	0	71088122
-494	162	4024	-847	-847	-9077	50	-58	162	1	102	1	71088123
-509	150	4011	-847	-850	-9072	48	-52	154	2	156	2	71088126
-520	152	4008	-843	-845	-9062	48	-52	154	3	258	3	71088126
-500	165	4067	-843	-845	-9059	44	-62	156	4	312	4	71088129
-486	166	4033	-844	-844	-9062	44	-62	156	5	414	5	71088138
-487	172	4029	-848	-845	-9078	53	-67	157	6	468	6	71088138
-488	149	4008	-850	-846	-9062	53	-67	157	7	570	7	71088169
-520	164	4024	-845	-845	-9094	47	-71	161	8	624	8	71088169
-505	187	4071	-841	-846	-9087	47	-71	161	9	726	9	71088171
-487	177	4075	-845	-844	-9064	39	-65	161	10	780	10	71088172
-511	185	4019	-850	-843	-9052	39	-65	161	11	882	11	71088173
-496	143	3976	-845	-847	-9063	34	-66	164	12	936	12	71088176
-514	142	3997	-847	-844	-9069	34	-66	164	13	1038	13	71088177
-521	162	4041	-839	-843	-9025	41	-69	157	14	1092	14	71088179
-484	183	4097	-837	-847	-9058	41	-69	157	15	1194	15	71088181
-476	186	4041	-844	-847	-9078	31	-73	159	16	1248	16	71088182
-503	162	4020	-846	-846	-9063	31	-73	159	17	1350	17	71088216
-495	169	3941	-849	-850	-9064	43	-73	165	18	1404	18	71088218
-519	166	4008	-846	-847	-9089	43	-73	165	19	1506	19	71088219
-522	169	4086	-845	-845	-9081	38	-70	160	20	1560	20	71088220
-497	174	4029	-839	-847	-9052	24	-72	148	22	1584	21	71088224
-519	153	3982	-846	-846	-9045	24	-72	148	23	1686	22	71088225
-496	147	3983	-848	-844	-9043	31	-71	157	24	1740	23	71088228
-520	159	4010	-842	-842	-9046	31	-71	157	25	1842	24	71088228
-520	175	4069	-843	-840	-9061	26	-76	154	26	1896	25	71088232
-491	176	4071	-850	-845	-9076	26	-76	154	27	1998	26	71088264
-518	152	4018	-844	-844	-9067	29	-75	161	28	2052	27	71088267
-518	157	3967	-845	-848	-9057	29	-75	161	29	2154	28	71088268
-502	160	4000	-842	-851	-9062	22	-82	152	30	2208	29	71088268
-511	162	4028	-842	-847	-9053	22	-82	152	31	2310	30	71088270
-494	171	4087	-848	-841	-9056	13	-73	151	32	2364	31	71088271
-486	182	4054	-845	-843	-9084	13	-73	151	33	2466	32	71088272
-515	154	4017	-849	-839	-9093	16	-76	150	34	2520	33	71088279
-510	161	4005	-849	-844	-9056	16	-76	150	35	2622	34	71088279
-515	137	3996	-845	-847	-9074	9	-75	151	36	2676	35	71088281
-515	154	4059	-839	-840	-9088	9	-75	151	37	2778	36	71088314
-498	184	4038	-839	-839	-9067	12	-74	156	38	2832	37	71088314
-487	164	4025	-845	-849	-9048	12	-74	156	39	2934	38	71088318
-513	151	3998	-849	-843	-9074	9	-77	151	40	2988	39	71088318
-518	170	4013	-846	-843	-9061	9	-77	151	41	3090	40	71088320
-511	172	4047	-845	-848	-9052	7	-75	147	42	3144	41	71088321
-522	155	4005	-844	-842	-9068	7	-75	147	43	3246	42	71088322
-504	162	4034	-845	-844	-9075	5	-73	147	44	3300	43	71088326
-514	159	4031	-845	-847	-9068	5	-73	147	45	3402	44	71088327
-515	171	3999	-844	-848	-9067	-3	-71	151	46	3456	45	71088362
-508	156	4030	-848	-839	-9090	-3	-71	151	47	3558	46	71088362
-534	164	4022	-844	-842	-9052	1	-69	153	48	3612	47	71088362
-502	164	4027	-844	-843	-9056	1	-69	153	49	3714	48	71088365
-531	156	4019	-847	-840	-9077	-6	-66	146	50	3768	49	71088366
-501	153	4046	-848	-842	-9053	-6	-66	146	51	3870	50	71088369
-516	154	4038	-843	-842	-9050	-14	-70	144	52	3924	51	71088369
-529	174	4013	-842	-846	-9059	-14	-70	144	53	4026	52	71088371
-509	162	4055	-848	-846	-9066	-12	-64	144	54	4080	53	71088376
-516	159	4044	-848	-849	-9064	-12	-64	144	55	4182	54	71088377
-516	155	4037	-839	-845	-9018	-20	-68	142	56	4236	55	71088411
-520	149	4030	-842	-844	-9055	-20	-68	142	57	4338	56	71088412
-511	151	4054	-846	-845	-9071	-18	-70	146	58	4392	57	71088414
-523	154	4019	-845	-843	-9026	-18	-70	146	59	4494	58	71088415
-516	147	4060	-841	-839	-9054	-19	-61	139	60	4548	59	71088415
-507	172	4022	-839	-839	-9046	-19	-61	139	61	4650	60	71088419
-497	146	4036	-847	-844	-9058	-20	-60	138	62	4704	61	71088419
-521	146	4022	-848	-843	-9039	-20	-60	138	63	4806	62	71088422
-510	148	4034	-841	-838	-9073	-29	-63	149	64	4860	63	71088424
-505	145	4051	-843	-840	-9072	-29	-63	149	65	4962	64	71088424
-525	143	4028	-847	-844	-9050	-33	-57	141	66	5016	65	71088453
-529	135	3981	-846	-848	-9062	-33	-57	141	67	5118	66	71088453
-519	142	4042	-840	-846	-9080	-32	-50	142	68	5172	67	71088455
-509	162	4053	-838	-845	-9083	-32	-50	142	69	5274	68	71088456
-546	153	4039	-847	-848	-9066	-34	-56	140	70	5328	69	71088457
-527	157	4026	-849	-845	-9095	-34	-56	140	71	5430	70	71088460
-530	148	4016	-845	-843	-9074	-43	-45	147	72	5484	71	71088460
-521	161	4009	-848	-846	-9039	-43	-45	147	73	5586	72	71088463
-514	132	4045	-850	-842	-9042	-40	-54	148	74	5640	73	71088471
-516	138	4017	-844	-842	-9082	-40	-54	148	75	5742	74	71088472
-532	151	4034	-843	-839	-9065	-48	-38	144	76	5796	75	71088508
-505	161	4054	-843	-845	-9043	-48	-38	144	77	5898	76	71088508
-498	144	4022	-843	-849	-9057	-46	-44	158	78	5952	77	71088511
-509	149	4034	-845	-844	-9070	-46	-44	158	79	6054	78	71088512
-521	138	4024	-840	-845	-9048	-49	-33	145	80	6108	79	71088512
-522	143	4043	-846	-845	-9053	-49	-33	145	81	6210	80	71088515
-524	137	4040	-849	-843	-9089	-52	-36	152	82	6264	81	71088517
-516	148	4050	-844	-846	-9049	-52	-36	152	83	6366	82	71088519
-502	150	4039	-842	-843	-9053	-51	-39	151	84	6420	83	71088519
-499	149	4027	-844	-840	-9075	-51	-39	151	85	6522	84	71088523
-510	148	4020	-849	-843	-9054	-51	-21	159	86	6576	85	71088555
-515	152	4036	-847	-847	-9058	-51	-21	159	87	6678	86	71088555
-515	154	4044	-840	-842	-9072	-42	-34	168	88	6732	87	71088559
-520	153	4007	-845	-842	-9079	-42	-34	168	89	6834	88	71088559
-514	131	4049	-852	-846	-9057	-50	-6	162	90	6888	89	71088561
-516	125	4038	-846	-841	-9050	-50	-6	162	91	6990	90	71088563
-526	146	4021	-836	-837	-9055	-52	-14	164	92	7044	91	71088563
-517	145	4008	-837	-847	-9092	-52	-14	164	93	7146	92	71088568
-505	149	4033	-845	-846	-9042	-36	-20	172	94	7200	93	71088568
-534	142	4032	-843	-846	-9049	-36	-20	172	95	7302	94	71088571
-507	146	4053	-841	-843	-9078	-33	-5	167	96	7356	95	71088604
-518	154	4029	-845	-844	-9062	-33	-5	167	97	7458	96	71088605
-523	128	4057	-846	-840	-9051	-28	-24	174	98	7512	97	71088608
-509	122	4035	-846	-846	-9080	-28	-24	174	99	7614	98	71088608
-517	137	4038	-842	-845	-9079	-30	6	160	100	7668	99	71088610
-518	147	4037	-841	-843	-9063	-30	6	160	101	7770	100	71088612
-514	120	4042	-847	-838	-9045	-28	-12	162	102	7824	101	71088612
-528	126	4042	-840	-843	-9067	-28	-12	162	103	7926	102	71088617
-531	135	4061	-844	-849	-9083	-14	0	170	104	7980	103	71088617
-509	120	4035	-844	-845	-9063	-14	0	170	105	8082	104	71088619
-511	139	4029	-842	-845	-9062	-16	0	158	106	8136	105	71088652
-505	139	4018	-844	-844	-9075	-16	0	158	107	8238	106	71088652
-517	134	4040	-842	-843	-9047	-13	-3	165	108	8292	107	71088655
-509	135	4026	-838	-845	-9056	-13	-3	165	109	8394	108	71088656
-502	145	4033	-844	-843	-9074	-6	16	148	110	8448	109	71088659
-515	136	4038	-847	-844	-9059	-6	16	148	111	8550	110	71088659
-494	124	4022	-842	-846	-9053	-15	-5	157	112	8604	111	71088661
-515	145	4055	-844	-847	-9058	-15	-5	157	113	8706	112	71088667
-509	111	4019	-849	-841	-9086	7	7	149	114	8760	113	71088667
-516	124	4025	-842	-840	-9073	7	7	149	115	8862	114	71088702
-534	127	4040	-839	-842	-9053	-6	2	148	116	8916	115	71088702
-503	155	4028	-843	-843	-9074	-6	2	148	117	9018	116	71088704
-519	127	4054	-846	-844	-9049	2	8	148	118	9072	117	71088709
-492	107	4036	-841	-842	-9060	2	8	148	119	9174	118	71088710
-514	131	4043	-844	-845	-9054	16	14	140	120	9228	119	71088710
-507	128	4039	-845	-845	-9069	16	14	140	121	9330	120	71088711
-497	123	4044	-845	-844	-9068	0	6	148	122	9384	121	71088712
-509	127	4014	-844	-846	-9060	0	6	148	123	9486	122	71088714
-506	129	4014	-843	-846	-9085	11	13	135	124	9540	123	71088715
-499	138	4020	-844	-843	-9060	11	13	135	125	9642	124	71088749
-513	128	4042	-850	-839	-9033	13	15	145	126	9696	125	71088749
-509	120	4055	-844	-842	-9046	13	15	145	127	9798	126	71088751
-513	124	4021	-847	-843	-9079	13	17	143	128	9852	127	71088756
-500	114	4028	-846	-841	-9059	13	17	143	129	9954	128	71088756
-498	129	4030	-842	-843	-9059	20	22	130	130	10008	129	71088757
-509	124	4041	-838	-841	-9088	20	22	130	131	10110	130	71088758
-498	135	4035	-839	-847	-9034	13	17	139	132	10164	131	71088760
-508	127	3996	-849	-848	-9054	13	17	139	133	10266	132	71088773
-506	144	4028	-846	-842	-9056	27	27	129	134	10320	133	71088774
-495	126	4027	-844	-844	-9059	27	27	129	135	10422	134	71088797
-505	120	4029	-843	-841	-9034	16	22	136	136	10476	135	71088803
-504	118	4063	-846	-840	-9047	16	22	136	137	10578	136	71088804
-474	130	4034	-843	-847	-9077	27	23	131	138	10632	137	71088804
-502	126	4015	-843	-837	-9042	27	23	131	139	10734	138	71088805
-492	111	4037	-844	-842	-9046	31	27	125	140	10788	139	71088805
-495	121	4025	-844	-844	-9081	31	27	125	141	10890	140	71088806
-513	128	4019	-845	-838	-9081	25	23	127	142	10944	141	71088809
-499	122	4034	-847	-844	-9070	25	23	127	143	11046	142	71088809
-485	131	4046	-846	-847	-9064	41	31	119	144	11100	143	71088813
-505	122	4038	-843	-846	-9102	41	31	119	145	11202	144	71088845
-501	115	4064	-842	-847	-9067	41	23	129	146	11256	145	71088846
-499	139	4036	-843	-844	-9032	41	23	129	147	11358	146	71088849
-505	130	4008	-841	-845	-9076	46	22	118	148	11412	147	71088849
-495	122	4024	-843	-841	-9075	46	22	118	149	11514	148	71088851
-495	139	4043	-842	-843	-9058	47	25	117	150	11568	149	71088856
-500	125	4037	-843	-843	-9059	47	25	117	151	11670	150	71088856
-511	128	4026	-847	-840	-9077	45	29	115	152	11724	151	71088860
-494	110	4045	-846	-840	-9055	45	29	115	153	11826	152	71088861
-492	121	4017	-844	-843	-9042	52	20	118	154	11880	153	71088863
-482	118	4044	-842	-845	-9070	52	20	118	155	11982	154	71088872
-482	122	4002	-841	-847	-9062	52	24	114	156	12036	155	71088872
-499	126	4032	-845	-847	-9032	52	24	114	157	12138	156	71088908
-501	124	4036	-844	-848	-9048	51	21	105	158	12192	157	71088908
-469	116	4017	-844	-843	-9072	51	21	105	159	12294	158	71088911
-505	126	4030	-846	-841	-9064	55	21	109	160	12348	159	71088911
-482	133	4023	-843	-846	-9050	55	21	109	161	12449	160	71088912
-490	141	4037	-841	-844	-9057	52	20	98	162	12503	161	71088917
-498	132	4031	-844	-837	-9059	52	20	98	163	12605	162	71088917
-505	131	4009	-841	-845	-9062	57	19	101	164	12659	163	71088919
-483	149	4051	-841	-842	-9065	57	19	101	165	12761	164	71088919
-522	121	4052	-838	-838	-9061	54	12	110	166	12815	165	71088923
-484	128	4021	-845	-847	-9067	54	12	110	167	12917	166	71088956
-465	133	4014	-846	-849	-9064	56	12	106	168	12971	167	71088957
-487	145	4041	-837	-841	-9064	56	12	106	169	13073	168	71088960
-482	129	4029	-842	-846	-9085	58	10	106	170	13127	169	71088960
-491	127	4038	-846	-845	-9059	58	10	106	171	13229	170	71088963
-494	133	4028	-841	-841	-9072	54	12	106	172	13283	171	71088964
-490	133	4025	-842	-845	-9057	54	12	106	173	13385	172	71088964
-492	134	4054	-844	-841	-9065	58	8	100	174	13439	173	71088968
-511	119	3994	-850	-842	-9049	58	8	100	175	13541	174	71088968
-480	128	4024	-842	-845	-9061	57	7	105	176	13595	175	71088971
-478	133	4036	-843	-843	-9064	57	7	105	177	13697	176	71089005
-496	128	4034	-844	-843	-9045	57	9	101	178	13751	177	71089006
-475	138	4025	-843	-843	-9068	57	9	101	179	13853	178	71089009
-508	148	4037	-840	-842	-9064	54	4	106	180	13907	179	71089009
-510	129	4027	-840	-842	-9048	54	4	106	181	14009	180	71089011
-478	138	4028	-841	-846	-9055	53	3	101	182	14063	181	71089013
-487	121	4004	-843	-845	-9065	53	3	101	183	14165	182	71089013
-492	133	4024	-846	-846	-9089	58	2	94	184	14219	183	71089016
-470	131	4042	-844	-851	-9048	58	2	94	185	14321	184	71089017
-486	134	4000	-844	-839	-9053	54	0	108	186	14375	185	71089028
-488	143	4022	-841	-840	-9093	54	0	108	187	14477	186	71089029
-490	136	4054	-847	-845	-9052	56	4	110	188	14531	187	71089031
-485	137	4000	-847	-842	-9048	56	4	110	189	14633	188	71089064
-486	134	4060	-841	-841	-9046	55	-1	117	190	14687	189	71089064
-491	136	4043	-847	-843	-9058	55	-1	117	191	14789	190	71089093
-491	114	4040	-845	-841	-9066	56	0	112	192	14843	191	71089093
-471	134	4017	-841	-841	-9075	56	0	112	193	14945	192	71089095
-486	140	4025	-841	-843	-9061	54	-4	112	194	14999	193	71089096
-489	138	4021	-843	-844	-9049	54	-4	112	195	15101	194	71089096
-463	153	4040	-842	-848	-9044	54	-2	112	196	15155	195	71089100
-484	161	4041	-841	-848	-9045	54	-2	112	197	15257	196	71089100
-483	144	4017	-848	-850	-9040	56	2	114	198	15311	197	71089102
-480	135	3998	-849	-844	-9027	56	2	114	199	15413	198	71089104
-506	141	4042	-842	-840	-9041	58	-2	124	200	15467	199	71089108
-477	131	4057	-840	-843	-9053	58	-2	124	201	15569	200	71089109
-472	142	4047	-844	-841	-9049	58	-2	112	202	15623	201	71089110
-493	143	4028	-845	-842	-9029	58	-2	112	203	15725	202	71089110
-475	151	4044	-842	-844	-9078	59	-3	125	204	15779	203	71089115
-484	154	4016	-842	-846	-9066	59	-3	125	205	15881	204	71089115
-470	142	4037	-844	-846	-9030	61	-5	125	206	15935	205	71089126
-471	145	4057	-841	-844	-9023	61	-5	125	207	16037	206	71089126
-493	142	4015	-840	-850	-9077	59	-3	129	208	16091	207	71089129
-479	138	4037	-842	-848	-9065	59	-3	129	209	16193	208	71089161
-493	148	4057	-846	-840	-9049	66	-10	128	210	16247	209	71089161
-462	149	4052	-842	-844	-9077	66	-10	128	211	16349	210	71089165
-484	164	4043	-845	-850	-9060	60	-4	124	212	16403	211	71089165
-479	136	4042	-843	-838	-9050	60	-4	124	213	16505	212	71089168
-469	145	4023	-846	-844	-9063	56	-10	122	214	16559	213	71089173
-482	141	4033	-845	-841	-9046	56	-10	122	215	16661	214	71089173
-467	139	4018	-846	-841	-9068	55	-11	125	216	16715	215	71089180
-487	133	4031	-845	-846	-9057	55	-11	125	217	16817	216	71089180
-480	136	4008	-845	-844	-9054	55	-13	135	218	16871	217	71089185
-482	152	4064	-841	-848	-9054	55	-13	135	219	16973	218	71089185
-484	155	4044	-842	-845	-9042	62	-16	132	220	17027	219	71089185
-469	167	4011	-841	-843	-9066	62	-16	132	221	17129	220	71089222
-490	166	4012	-844	-842	-9083	65	-15	135	222	17183	221	71089223
-470	149	4047	-847	-844	-9046	65	-15	135	223	17285	222	71089226
-477	147	4014	-845	-843	-9071	64	-20	138	224	17339	223	71089226
-484	143	4022	-842	-842	-9054	64	-20	138	225	17441	224	71089229
-477	153	4025	-846	-842	-9050	61	-17	135	226	17495	225	71089230
-494	160	4054	-846	-846	-9045	61	-17	135	227	17597	226	71089230
-482	157	4037	-843	-842	-9050	61	-23	141	228	17651	227	71089234
-485	149	4022	-839	-838	-9060	61	-23	141	229	17753	228	71089234
-472	138	4027	-840	-843	-9058	68	-24	144	230	17807	229	71089237
-475	143	4019	-845	-843	-9081	68	-24	144	231	17909	230	71089248
-486	146	4035	-844	-847	-9060	64	-22	144	232	17963	231	71089248
-493	159	4018	-841	-843	-9084	64	-22	144	233	18065	232	71089282
-486	167	4025	-843	-842	-9069	62	-28	146	234	18118	233	71089283
-481	159	4042	-845	-844	-9078	62	-28	146	235	18220	234	71089285
-491	161	4033	-847	-843	-9057	58	-30	146	236	18274	235	71089287
-485	165	4033	-841	-844	-9057	58	-30	146	237	18376	236	71089287
-469	151	4043	-847	-844	-9066	58	-28	148	238	18430	237	71089290
-490	144	4016	-845	-847	-9095	58	-28	148	239	18532	238	71089290
-481	155	4041	-845	-844	-9086	63	-33	145	240	18585	239	71089293
-484	156	4037	-842	-845	-9067	63	-33	145	241	18687	240	71089295
-478	159	4049	-842	-846	-9057	63	-39	151	242	18741	241	71089296
-489	154	4033	-845	-851	-9068	63	-39	151	243	18843	242	71089330
-493	156	4014	-844	-841	-9066	61	-39	159	244	18897	243	71089330
-484	154	4018	-841	-843	-9065	61	-39	159	245	18999	244	71089333
-478	151	4031	-845	-845	-9068	59	-45	147	246	19053	245	71089334
-500	150	4037	-842	-840	-9062	59	-45	147	247	19155	246	71089334
-492	165	4014	-839	-843	-9056	59	-39	153	248	19209	247	71089338
-481	159	4031	-843	-845	-9074	59	-39	153	249	19311	248	71089338
-485	168	4030	-848	-843	-9077	57	-47	151	250	19365	249	71089341
-485	152	3992	-844	-848	-9059	57	-47	151	251	19467	250	71089342
-493	172	4029	-839	-846	-9046	63	-51	155	252	19521	251	71089345
-468	158	4029	-847	-847	-9089	63	-51	155	253	19623	252	71089378
-484	160	4011	-852	-841	-9096	61	-55	155	254	19676	253	71089381
-486	151	4029	-840	-845	-9070	61	-55	155	255	19778	254	71089389
-488	165	4038	-841	-845	-9115	58	-54	154	256	19832	255	71089389
-483	174	4030	-848	-844	-9077	58	-54	154	257	19934	256	71089391
-497	165	4033	-848	-850	-9064	54	-54	152	258	19988	257	71089393
-485	154	4013	-848	-847	-9064	54	-54	152	259	20090	258	71089393
-499	152	4009	-847	-843	-9069	51	-51	153	260	20144	259	71089438
-481	151	4037	-847	-844	-9050	51	-51	153	261	20246	260	71089438
-501	146	4041	-844	-845	-9039	47	-57	159	262	20300	261	71089438
-485	165	4031	-837	-846	-9087	47	-57	159	263	20402	262	71089439
-489	162	4049	-845	-844	-9060	55	-59	159	264	20456	263	71089439
-503	166	4041	-845	-844	-9061	55	-59	159	265	20558	264	71089439
-486	170	4009	-843	-849	-9080	41	-59	159	266	20612	265	71089439
-491	166	4019	-844	-842	-9087	41	-59	159	267	20714	266	71089440
-500	176	4052	-847	-843	-9090	46	-62	160	268	20768	267	71089453
-493	161	4028	-844	-846	-9074	46	-62	160	269	20870	268	71089453
-495	173	4027	-840	-848	-9079	45	-63	157	270	20924	269	71089456
-510	185	4011	-843	-845	-9104	45	-63	157	271	21026	270	71089457
-500	166	4007	-844	-846	-9072	42	-66	156	272	21080	271	71089459
-503	166	4046	-846	-847	-9068	42	-66	156	273	21182	272	71089460
-489	176	4031	-843	-841	-9048	42	-62	156	274	21236	273	71089460
-500	169	4029	-846	-840	-9076	42	-62	156	275	21338	274	71089464
-520	155	4051	-843	-842	-9041	35	-71	157	276	21392	275	71089464
-498	163	4015	-844	-845	-9062	35	-71	157	277	21494	276	71089466
-526	159	4055	-845	-843	-9068	36	-70	164	278	21548	277	71089499
-504	161	4047	-847	-844	-9059	36	-70	164	279	21650	278	71089499
-511	164	4010	-845	-850	-9057	35	-75	157	280	21704	279	71089502
-489	178	4044	-845	-845	-9077	35	-75	157	281	21806	280	71089503
-479	163	4029	-846	-846	-9061	33	-69	155	282	21860	281	71089506
-481	159	4002	-844	-847	-9056	33	-69	155	283	21962	282	71089509
-514	162	4014	-847	-841	-9058	30	-76	152	284	22016	283	71089509
-485	173	4024	-848	-847	-9071	30	-76	152	285	22118	284	71089514
-513	164	4035	-843	-844	-9047	30	-78	164	286	22172	285	71089514
-514	164	4024	-842	-844	-9076	30	-78	164	287	22274	286	71089549
-503	176	4032	-844	-843	-9091	26	-78	158	288	22328	287	71089549
-507	173	4028	-845	-845	-9085	26	-78	158	289	22430	288	71089551
-518	158	3999	-848	-847	-9049	23	-77	159	290	22484	289	71089552
-508	158	4039	-846	-844	-9096	23	-77	159	291	22586	290	71089553
-497	169	4032	-844	-840	-9078	23	-73	153	292	22640	291	71089556
-499	156	4033	-845	-847	-9039	23	-73	153	293	22742	292	71089556
-501	174	4036	-840	-846	-9071	13	-69	153	294	22796	293	71089559
-506	179	4030	-843	-848	-9053	13	-69	153	295	22898	294	71089561
-503	170	4031	-848	-846	-9056	14	-70	152	296	22952	295	71089562
-510	172	3995	-844	-843	-9043	14	-70	152	297	23054	296	71089596
-507	168	4034	-841	-847	-9067	23	-77	157	298	23108	297	71089596
-510	144	4011	-848	-844	-9059	23	-77	157	299	23210	298	71089599
-503	144	4032	-847	-845	-9030	9	-75	151	300	23264	299	71089600
-513	141	4010	-842	-843	-9082	9	-75	151	301	23366	300	71089600
-496	169	4017	-843	-850	-9079	8	-70	154	302	23420	301	71089604
-521	169	4032	-847	-848	-9050	8	-70	154	303	23522	302	71089604
-517	171	4030	-844	-846	-9057	10	-74	148	304	23576	303	71089606
-515	164	3988	-839	-844	-9075	10	-74	148	305	23678	304	71089612
-514	159	4018	-846	-846	-9078	1	-69	153	306	23732	305	71089613
-505	177	4042	-847	-845	-9061	1	-69	153	307	23834	306	71089622
-500	159	4053	-846	-848	-9076	0	-70	148	308	23888	307	71089623
-514	158	4051	-842	-844	-9094	0	-70	148	309	23990	308	71089625
-509	160	4019	-841	-845	-9082	-2	-76	146	310	24044	309	71089634
-498	161	3994	-845	-843	-9058	-2	-76	146	311	24146	310	71089634
-514	153	4042	-846	-840	-9060	-11	-69	149	312	24200	311	71089670
-506	159	4021	-846	-844	-9062	-11	-69	149	313	24302	312	71089671
-506	159	4026	-843	-843	-9060	-12	-72	148	314	24356	313	71089674
-521	158	4004	-847	-841	-9063	-12	-72	148	315	24458	314	71089674
-498	155	4036	-844	-843	-9085	-10	-64	138	316	24512	315	71089676
-515	163	4051	-842	-853	-9045	-10	-64	138	317	24614	316	71089678
-527	156	4020	-843	-847	-9067	-13	-67	139	318	24668	317	71089678
-509	162	4022	-844	-844	-9060	-13	-67	139	319	24770	318	71089681
-508	181	4025	-845	-842	-9056	-21	-67	143	320	24824	319	71089682
-522	172	4028	-843	-849	-9080	-21	-67	143	321	24926	320	71089685
-515	156	4050	-846	-846	-9066	-21	-59	147	322	24980	321	71089730
-513	138	4047	-850	-848	-9058	-21	-59	147	323	25082	322	71089730
-512	150	4055	-843	-842	-9060	-24	-66	136	324	25136	323	71089734
-513	165	4046	-841	-841	-9053	-24	-66	136	325	25238	324	71089734
-523	146	4039	-846	-843	-9063	-31	-59	137	326	25292	325	71089736
-524	126	4051	-842	-847	-9055	-31	-59	137	327	25394	326	71089738
-523	162	4033	-839	-844	-9071	-29	-59	139	328	25448	327	71089738
-514	152	4023	-842	-844	-9057	-29	-59	139	329	25550	328	71089741
-527	141	4062	-850	-850	-9058	-35	-59	141	330	25604	329	71089742
-500	149	4007	-844	-851	-9054	-35	-59	141	331	25706	330	71089744
-508	148	4031	-839	-841	-9046	-36	-58	146	332	25760	331	71089745
-530	136	4002	-843	-846	-9047	-36	-58	146	333	25862	332	71089746
-529	138	4052	-848	-845	-9069	-39	-51	139	334	25916	333	71089756
-528	163	4026	-842	-840	-9068	-39	-51	139	335	26018	334	71089759
-522	161	4028	-840	-844	-9073	-42	-40	148	336	26072	335	71089760
-507	149	4011	-848	-846	-9058	-42	-40	148	337	26174	336	71089792
-537	147	4075	-848	-842	-9055	-43	-49	153	338	26228	337	71089792
-535	152	4035	-842	-846	-9079	-43	-49	153	339	26330	338	71089795
-523	153	4033	-844	-848	-9087	-54	-38	144	340	26384	339	71089795
-522	145	3998	-848	-848	-9041	-54	-38	144	341	26486	340	71089799
-527	158	4014	-842	-844	-9043	-46	-40	150	342	26540	341	71089800
-535	150	4042	-840	-848	-9074	-46	-40	150	343	26642	342	71089800
-527	138	4010	-843	-843	-9053	-53	-31	153	344	26696	343	71089804
-522	150	4006	-850	-845	-9049	-53	-31	153	345	26798	344	71089805
-516	133	4034	-847	-844	-9060	-54	-30	158	346	26852	345	71089839
-509	125	4065	-846	-845	-9074	-54	-30	158	347	26954	346	71089840
-528	134	4059	-846	-847	-9046	-42	-30	162	348	27008	347	71089842
-529	140	4048	-840	-844	-9048	-42	-30	162	349	27110	348	71089844
-501	159	4030	-838	-847	-9048	-52	-14	154	350	27164	349	71089849
-515	158	4036	-846	-848	-9094	-52	-14	154	351	27266	350	71089850
-522	150	4034	-846	-846	-9052	-47	-31	165	352	27320	351	71089850
-521	135	4034	-844	-845	-9037	-47	-31	165	353	27422	352	71089851
-511	142	4037	-847	-844	-9082	-40	-4	168	354	27476	353	71089858
-524	148	4037	-848	-847	-9053	-40	-4	168	355	27578	354	71089858
-535	149	4056	-841	-843	-9051	-40	-12	170	356	27632	355	71089889
-524	157	4015	-836	-846	-9092	-40	-12	170	357	27734	356	71089890
-503	154	4022	-843	-843	-9094	-33	-15	175	358	27788	357	71089891
-526	145	4023	-845	-841	-9038	-33	-15	175	359	27890	358	71089893
-513	160	4011	-842	-845	-9030	-33	9	157	360	27944	359	71089895
-514	142	4033	-845	-846	-9075	-33	9	157	361	28045	360	71089897
-520	124	4034	-847	-841	-9052	-23	-11	173	362	28100	361	71089897
-529	128	4043	-845	-843	-9041	-23	-11	173	363	28202	362	71089899
-535	140	4045	-840	-846	-9051	-19	11	163	364	28256	363	71089902
-516	135	4024	-841	-841	-9091	-19	11	163	365	28358	364	71089902
-506	137	4016	-844	-845	-9072	-24	-12	164	366	28412	365	71089937
-483	146	4015	-843	-842	-9070	-24	-12	164	367	28514	366	71089938
-512	159	4024	-843	-845	-9077	-11	-1	165	368	28568	367	71089940
-511	137	4031	-848	-847	-9043	-11	-1	165	369	28670	368	71089941
-524	132	4054	-847	-841	-9051	-16	8	154	370	28724	369	71089942
-505	126	4022	-843	-845	-9081	-16	8	154	371	28826	370	71089944
-512	139	4053	-841	-843	-9065	-13	-9	161	372	28880	371	71089945
-525	132	4055	-845	-845	-9062	-13	-9	161	373	28982	372	71089948
-507	143	4035	-845	-845	-9082	4	16	148	374	29036	373	71089949
-535	140	4031	-844	-844	-9086	4	16	148	375	29138	374	71089952
-521	140	4035	-844	-848	-9050	-12	0	154	376	29192	375	71089989
-505	128	4041	-847	-843	-9042	-12	0	154	377	29294	376	71089990
-516	122	4058	-845	-847	-9052	9	9	153	378	29348	377	71089991
-504	137	4046	-842	-844	-9045	9	9	153	379	29450	378	71089992
-506	132	4046	-836	-845	-9059	3	9	145	380	29504	379	71089993
-524	141	4021	-842	-840	-9073	3	9	145	381	29606	380	71089998
-510	131	4027	-845	-848	-9067	3	9	141	382	29660	381	71089999
-502	124	4044	-844	-840	-9063	3	9	141	383	29762	382	71089999
-494	146	4044	-841	-841	-9056	14	14	138	384	29816	383	71090000
-507	130	4011	-846	-842	-9066	14	14	138	385	29918	384	71090001
-519	121	4027	-847	-839	-9085	7	1	143	386	29972	385	71090033
-519	133	4020	-844	-845	-9079	7	1	143	387	30074	386	71090033
-503	131	4040	-841	-841	-9088	19	15	135	388	30128	387	71090036
-512	143	4049	-843	-840	-9086	19	15	135	389	30230	388	71090037
-509	138	4017	-843	-845	-9071	15	17	139	390	30284	389	71090039
-523	127	4044	-846	-847	-9028	15	17	139	391	30386	390	71090040
-498	129	4025	-847	-845	-9046	10	20	132	392	30440	391	71090040
-490	125	4019	-846	-847	-9066	10	20	132	393	30542	392	71090045
-497	120	4042	-844	-841	-9060	24	18	132	394	30596	393	71090046
-505	127	4029	-845	-843	-9041	24	18	132	395	30698	394	71090049
-485	135	4051	-844	-839	-9097	24	20	138	396	30752	395	71090081
-505	134	4054	-843	-842	-9054	24	20	138	397	30854	396	71090082
-513	135	4031	-847	-842	-9049	29	25	129	398	30908	397	71090085
-515	126	4007	-843	-846	-9064	29	25	129	399	31010	398	71090085
-515	134	4018	-845	-842	-9072	26	26	128	400	31064	399	71090089
-502	137	4031	-847	-843	-9043	26	26	128	401	31166	400	71090089
-496	113	4014	-843	-847	-9060	28	28	128	402	31220	401	71090091
-504	124	4009	-843	-843	-9069	28	28	128	403	31322	402	71090094
-498	128	4017	-843	-843	-9055	39	27	127	404	31376	403	71090095
-502	135	4045	-845	-847	-9056	39	27	127	405	31478	404	71090131
-506	126	4045	-844	-845	-9074	41	21	137	406	31532	405	71090132
-496	144	4052	-845	-841	-9057	41	21	137	407	31634	406	71090134
-490	131	4026	-842	-848	-9031	41	31	123	408	31688	407	71090137
-494	118	4040	-845	-846	-9069	41	31	123	409	31790	408	71090137
-494	129	4023	-842	-843	-9067	46	24	126	410	31844	409	71090139
-490	135	4015	-845	-844	-9049	46	24	126	411	31946	410	71090139
-488	137	4027	-845	-845	-9035	45	29	111	412	32000	411	71090141
-480	129	4031	-846	-845	-9070	45	29	111	413	32102	412	71090143
-491	116	4027	-847	-838	-9084	51	23	115	414	32156	413	71090143
-502	140	4040	-846	-846	-9046	51	23	115	415	32258	414	71090178
-479	131	4013	-847	-850	-9053	50	22	116	416	32312	415	71090178
-489	134	4014	-846	-841	-9060	50	22	116	417	32414	416	71090180
-495	113	4026	-842	-841	-9064	53	25	109	418	32468	417	71090181
-477	142	4044	-842	-845	-9041	53	25	109	419	32570	418	71090182
-484	128	4028	-840	-842	-9077	49	23	111	420	32624	419	71090185
-485	136	4019	-842	-839	-9069	49	23	111	421	32726	420	71090186
-483	133	4029	-845	-847	-9034	57	25	107	422	32780	421	71090188
-486	142	4044	-842	-844	-9053	57	25	107	423	32882	422	71090190
-473	122	4017	-842	-845	-9069	60	12	106	424	32936	423	71090191
-498	115	4002	-846	-848	-9075	60	12	106	425	33038	424	71090204
-486	138	4002	-845	-842	-9037	54	20	108	426	33092	425	71090204
-492	138	4041	-842	-840	-9073	54	20	108	427	33194	426	71090215
-496	115	4053	-843	-840	-9065	55	15	101	428	33248	427	71090215
-487	119	4033	-845	-847	-9043	55	15	101	429	33350	428	71090216
-498	127	4024	-838	-840	-9038	55	7	107	430	33404	429	71090252
-503	126	4002	-841	-844	-9097	55	7	107	431	33506	430	71090253
-471	137	4035	-850	-845	-9106	54	10	102	432	33560	431	71090258
-492	138	4058	-842	-845	-9062	54	10	102	433	33662	432	71090259
-485	138	4033	-839	-847	-9055	58	12	100	434	33716	433	71090260
-500	138	4050	-842	-840	-9036	58	12	100	435	33818	434	71090260
-497	130	4030	-846	-840	-9066	58	14	100	436	33872	435	71090261
-489	126	4035	-848	-845	-9055	58	14	100	437	33974	436	71090263
-485	136	4004	-842	-845	-9080	59	11	103	438	34028	437	71090263
-501	128	4026	-845	-847	-9090	59	11	103	439	34130	438	71090267
-490	119	4038	-852	-846	-9032	53	3	103	440	34184	439	71090299
-494	125	4032	-845	-840	-9093	53	3	103	441	34286	440	71090299
-480	136	4039	-837	-846	-9101	57	5	107	442	34340	441	71090303
-477	138	4040	-845	-844	-9068	57	5	107	443	34442	442	71090303
-471	127	4031	-847	-840	-9060	53	7	105	444	34496	443	71090305
-496	138	3999	-843	-844	-9071	53	7	105	445	34598	444	71090307
-498	149	4024	-838	-845	-9074	59	1	101	446	34652	445	71090307
-483	132	4012	-844	-843	-9038	59	1	101	447	34754	446	71090311
-487	122	4019	-846	-842	-9077	55	-1	111	448	34808	447	71090312
-484	146	4015	-841	-842	-9076	55	-1	111	449	34910	448	71090314
-485	149	4017	-842	-847	-9050	58	-6	106	450	34964	449	71090370
-486	137	4050	-846	-840	-9060	58	-6	106	451	35066	450	71090371
-470	129	4051	-846	-845	-9077	52	4	104	452	35120	451	71090374
-481	125	4022	-841	-844	-9067	52	4	104	453	35222	452	71090374
-504	150	4013	-845	-840	-9068	50	2	112	454	35276	453	71090377
-476	119	4035	-846	-843	-9056	50	2	112	455	35378	454	71090378
-472	127	4031	-846	-846	-9056	52	2	112	456	35432	455	71090380
-478	139	4035	-840	-841	-9063	52	2	112	457	35534	456	71090381
-495	144	4035	-841	-848	-9062	53	1	115	458	35588	457	71090382
-471	130	4043	-844	-847	-9052	53	1	115	459	35690	458	71090387
-486	141	4041	-842	-845	-9069	54	-2	116	460	35744	459	71090388
-476	144	4023	-843	-845	-9052	54	-2	116	461	35846	460	71090389
-474	135	4030	-844	-846	-9055	50	-2	112	462	35900	461	71090391
-476	149	4041	-845	-844	-9070	50	-2	112	463	36002	462	71090392
-466	149	4046	-845	-843	-9028	59	-3	125	464	36056	463	71090396
-459	142	4047	-842	-845	-9078	59	-3	125	465	36157	464	71090397
-476	155	4020	-844	-841	-9071	60	-2	120	466	36211	465	71090400
-481	154	4022	-848	-838	-9057	60	-2	120	467	36313	466	71090435
-480	123	4048	-845	-838	-9049	55	-3	127	468	36367	467	71090435
-473	150	4047	-840	-841	-9082	55	-3	127	469	36469	468	71090437
-469	146	4022	-840	-842	-9062	58	-6	126	470	36523	469	71090438
-494	137	4012	-848	-843	-9047	58	-6	126	471	36625	470	71090440
-481	138	4015	-847	-844	-9077	67	-5	125	472	36679	471	71090441
-492	166	4006	-835	-845	-9058	67	-5	125	473	36781	472	71090442
-491	170	4007	-837	-839	-9067	57	-3	127	474	36835	473	71090446
-477	161	4013	-846	-845	-9067	57	-3	127	475	36937	474	71090446
-485	146	4020	-845	-846	-9057	62	-14	126	476	36991	475	71090449
-497	165	4014	-843	-843	-9051	62	-14	126	477	37093	476	71090483
-490	144	4009	-847	-842	-9031	60	-10	132	478	37147	477	71090483
-472	144	3999	-850	-845	-9038	60	-10	132	479	37249	478	71090487
-486	152	4014	-844	-841	-9073	60	-10	132	480	37303	479	71090487
-464	153	4030	-843	-844	-9065	60	-10	132	481	37405	480	71090489
-460	145	4042	-843	-845	-9055	61	-15	131	482	37459	481	71090490
-478	159	4019	-841	-838	-9060	61	-15	131	483	37561	482	71090491
-477	177	4014	-842	-841	-9060	57	-11	127	484	37615	483	71090494
-484	145	3999	-839	-844	-9043	57	-11	127	485	37717	484	71090494
-475	171	4039	-841	-843	-9055	62	-20	138	486	37771	485	71090506
-474	161	4024	-846	-845	-9052	62	-20	138	487	37873	486	71090508
-475	147	4009	-844	-838	-9067	65	-19	141	488	37927	487	71090509
-478	169	4020	-845	-845	-9055	65	-19	141	489	38029	488	71090541
-478	152	4011	-847	-845	-9090	70	-18	140	490	38083	489	71090543
-486	147	4037	-847	-845	-9092	70	-18	140	491	38185	490	71090547
-478	145	4017	-844	-843	-9060	70	-22	144	492	38239	491	71090548
-479	159	4049	-844	-842	-9069	70	-22	144	493	38341	492	71090549
-488	155	4035	-845	-846	-9082	72	-26	144	494	38395	493	71090550
-470	139	4031	-848	-843	-9061	72	-26	144	495	38496	494	71090551
-489	160	4034	-841	-844	-9059	61	-27	145	496	38551	495	71090554
-487	164	4022	-840	-848	-9089	61	-27	145	497	38653	496	71090554
-481	163	4012	-845	-846	-9071	65	-25	147	498	38707	497	71090557
-482	168	4028	-843	-845	-9059	65	-25	147	499	38809	498	71090590
-481	160	4025	-843	-843	-9069	61	-37	145	500	38863	499	71090591
-494	155	4040	-842	-840	-9071	61	-37	145	501	38965	500	71090595
-486	130	4008	-848	-843	-9049	62	-34	148	502	39019	501	71090597
-476	154	4032	-849	-845	-9049	62	-34	148	503	39121	502	71090598
-490	162	4021	-841	-846	-9080	59	-37	149	504	39175	503	71090599
-476	167	4043	-845	-847	-9064	59	-37	149	505	39277	504	71090599
-491	149	4052	-848	-845	-9083	58	-36	148	506	39331	505	71090603
-481	148	4034	-841	-847	-9084	58	-36	148	507	39433	506	71090606
-501	163	4007	-836	-842	-9079	65	-43	151	508	39487	507	71090607
-500	165	4032	-843	-839	-9060	65	-43	151	509	39589	508	71090639
-499	147	4017	-845	-845	-9058	60	-50	158	510	39643	509	71090640
-486	164	4049	-843	-841	-9086	60	-50	158	511	39745	510	71090643
-497	173	4036	-843	-847	-9084	55	-45	153	512	39799	511	71090643
-481	165	4026	-845	-849	-9062	55	-45	153	513	39901	512	71090646
-491	171	4050	-851	-842	-9053	60	-46	152	514	39955	513	71090648
-472	159	4038	-849	-849	-9073	60	-46	152	515	40057	514	71090648
-488	137	4046	-846	-848	-9071	59	-47	153	516	40111	515	71090652
-505	168	4033	-844	-846	-9070	59	-47	153	517	40213	516	71090652
-477	159	4037	-846	-853	-9073	62	-54	158	518	40267	517	71090686
-489	161	4039	-845	-841	-9058	62	-54	158	519	40369	518	71090686
-492	170	4040	-845	-842	-9062	58	-60	162	520	40423	519	71090687
-505	175	4004	-843	-847	-9057	58	-60	162	521	40525	520	71090690
-520	167	4013	-845	-847	-9047	49	-57	157	522	40579	521	71090690
-510	176	4023	-842	-844	-9062	49	-57	157	523	40681	522	71090694
-493	174	4041	-844	-840	-9082	57	-55	155	524	40735	523	71090694
-486	171	4045	-845	-844	-9059	57	-55	155	525	40837	524	71090696
-487	165	4067	-846	-849	-9047	49	-61	153	526	40891	525	71090703
-497	157	4034	-847	-848	-9063	49	-61	153	527	40993	526	71090703
-481	165	4037	-844	-846	-9095	51	-67	163	528	41047	527	71090713
-495	162	4018	-847	-849	-9070	51	-67	163	529	41149	528	71090713
-503	175	3997	-847	-845	-9095	48	-64	162	530	41203	529	71090715
-501	168	4016	-843	-844	-9086	48	-64	162	531	41305	530	71090749
-490	187	4038	-840	-845	-9089	42	-64	164	532	41359	531	71090750
-501	158	4061	-849	-844	-9061	42	-64	164	533	41461	532	71090752
-480	150	4028	-849	-846	-9078	43	-71	157	534	41515	533	71090753
-501	172	4026	-838	-843	-9087	43	-71	157	535	41617	534	71090755
-507	158	4035	-843	-843	-9076	44	-68	158	536	41671	535	71090756
-499	177	4025	-850	-844	-9073	44	-68	158	537	41773	536	71090757
-499	180	4042	-845	-845	-9078	38	-66	158	538	41827	537	71090760
-502	183	4037	-844	-846	-9072	38	-66	158	539	41929	538	71090761
-503	168	4037	-847	-847	-9063	38	-68	160	540	41983	539	71090764
-485	160	4010	-846	-848	-9081	38	-68	160	541	42085	540	71090802
-496	166	4009	-845	-849	-9056	38	-68	158	542	42139	541	71090803
-494	183	4029	-840	-848	-9086	38	-68	158	543	42241	542	71090808
-502	160	4030	-843	-849	-9055	32	-70	160	544	42295	543	71090809
-510	156	4023	-846	-848	-9076	32	-70	160	545	42397	544	71090809
-509	162	4043	-843	-843	-9072	28	-78	156	546	42451	545	71090810
-510	154	4021	-846	-840	-9071	28	-78	156	547	42553	546	71090810
-509	166	4037	-847	-841	-9074	27	-73	155	548	42607	547	71090811
-508	167	4011	-846	-843	-9072	27	-73	155	549	42709	548	71090811
-514	149	4026	-843	-842	-9063	28	-74	154	550	42763	549	71090845
-502	173	4033	-843	-843	-9051	28	-74	154	551	42865	550	71090845
-502	178	4043	-843	-848	-9061	22	-72	154	552	42919	551	71090848
-518	167	4017	-844	-849	-9077	22	-72	154	553	43021	552	71090849
-481	177	4034	-848	-851	-9084	20	-74	150	554	43075	553	71090854
-513	166	4032	-845	-848	-9075	20	-74	150	555	43177	554	71090857
-502	168	4031	-845	-846	-9075	17	-75	157	556	43231	555	71090858
-513	158	4029	-846	-847	-9106	17	-75	157	557	43333	556	71090859
-511	164	4049	-844	-841	-9065	18	-70	154	558	43387	557	71090860
-501	172	4008	-841	-843	-9073	18	-70	154	559	43489	558	71090860
-504	169	4018	-847	-841	-9078	13	-79	151	560	43543	559	71090894
-520	176	4023	-848	-844	-9065	13	-79	151	561	43645	560	71090894
-511	175	4032	-845	-848	-9053	14	-76	150	562	43699	561	71090896
-510	179	4046	-841	-847	-9091	14	-76	150	563	43801	562	71090898
-517	144	4058	-845	-843	-9087	13	-73	153	564	43855	563	71090898
-488	158	4067	-847	-847	-9044	13	-73	153	565	43957	564	71090901
-515	140	4040	-842	-851	-9063	8	-68	146	566	44011	565	71090902
-518	184	4014	-839	-848	-9085	8	-68	146	567	44113	566	71090904
-504	166	4024	-847	-848	-9086	0	-76	148	568	44167	567	71090909
-527	147	4029	-848	-840	-9072	0	-76	148	569	44269	568	71090909
-510	164	4010	-843	-842	-9091	-2	-72	150	570	44323	569	71090919
-513	162	4058	-845	-845	-9079	-2	-72	150	571	44425	570	71090919
-523	155	4010	-851	-847	-9072	-4	-66	146	572	44479	571	71090923
-513	154	4021	-847	-841	-9062	-4	-66	146	573	44581	572	71090955
-518	144	4039	-839	-845	-9109	-9	-75	143	574	44635	573	71090956
-523	174	4028	-843	-846	-9078	-9	-75	143	575	44737	574	71090959
-526	170	4061	-847	-845	-9062	-6	-66	150	576	44791	575	71090959
-509	153	4026	-846	-846	-9076	-6	-66	150	577	44893	576	71090961
-509	167	4047	-840	-848	-9050	-13	-71	139	578	44947	577	71090963
-545	174	4016	-849	-841	-9051	-13	-71	139	579	45049	578	71090963
-510	174	4023	-846	-849	-9076	-14	-62	136	580	45103	579	71090967
-511	142	4027	-843	-844	-9079	-14	-62	136	581	45205	580	71090967
-503	166	4024	-839	-837	-9063	-19	-67	143	582	45259	581	71091010
-491	158	4013	-843	-841	-9060	-19	-67	143	583	45361	582	71091010
-506	150	4020	-848	-847	-9092	-21	-65	137	584	45415	583	71091013
-518	160	4032	-845	-843	-9062	-21	-65	137	585	45517	584	71091014
-524	160	4027	-845	-844	-9040	-25	-61	141	586	45571	585	71091014
-514	171	4017	-848	-842	-9064	-25	-61	141	587	45673	586	71091018
-521	136	4045	-849	-842	-9074	-30	-66	142	588	45727	587	71091018
-522	149	4028	-844	-842	-9047	-30	-66	142	589	45829	588	71091020
-511	152	4046	-840	-840	-9070	-30	-54	140	590	45883	589	71091022
-504	162	4021	-839	-847	-9084	-30	-54	140	591	45985	590	71091022
-514	143	4042	-846	-846	-9057	-30	-54	142	592	46039	591	71091027
-527	162	4055	-841	-845	-9046	-30	-54	142	593	46141	592	71091027
-500	150	4034	-842	-846	-9054	-41	-51	141	594	46195	593	71091030
-520	149	4052	-848	-841	-9058	-41	-51	141	595	46297	594	71091069
-516	128	4031	-850	-838	-9048	-37	-47	147	596	46351	595	71091082
-531	137	4059	-844	-843	-9044	-37	-47	147	597	46452	596	71091083
-542	153	4045	-838	-840	-9062	-42	-50	144	598	46506	597	71091084
-504	147	4036	-845	-845	-9055	-42	-50	144	599	46608	598	71091084
-514	150	4044	-844	-848	-9037	-48	-38	138	600	46662	599	71091087
-539	153	4041	-843	-847	-9069	-48	-38	138	601	46764	600	71091087
-515	138	4015	-843	-846	-9088	-49	-39	151	602	46818	601	71091087
-512	158	4037	-844	-844	-9032	-49	-39	151	603	46920	602	71091088
-521	133	4025	-842	-843	-9053	-52	-36	144	604	46974	603	71091088
-513	147	4036	-841	-850	-9082	-52	-36	144	605	47076	604	71091113
-526	149	4050	-839	-847	-9074	-48	-36	150	606	47130	605	71091113
-509	164	4023	-842	-846	-9064	-48	-36	150	607	47232	606	71091116
-529	147	4047	-849	-851	-9065	-56	-34	152	608	47286	607	71091117
-526	155	4016	-849	-844	-9069	-56	-34	152	609	47388	608	71091120
-516	163	4027	-845	-837	-9057	-53	-21	155	610	47442	609	71091121
-519	139	4037	-846	-844	-9064	-53	-21	155	611	47544	610	71091121
-502	140	4045	-846	-851	-9098	-48	-24	164	612	47598	611	71091126
-527	137	4029	-843	-844	-9081	-48	-24	164	613	47700	612	71091127
-537	134	4018	-840	-844	-9051	-55	-7	157	614	47754	613	71091136
-512	153	4026	-839	-845	-9059	-55	-7	157	615	47856	614	71091137
-529	137	4027	-839	-846	-9064	-45	-25	175	616	47910	615	71091140
-508	144	4044	-842	-843	-9049	-45	-25	175	617	48012	616	71091173
-508	157	4044	-845	-848	-9053	-40	-6	174	618	48066	617	71091173
-523	140	4025	-845	-847	-9067	-40	-6	174	619	48168	618	71091176
-499	127	4039	-847	-845	-9039	-43	1	161	620	48222	619	71091177
-523	141	4047	-844	-847	-9084	-43	1	161	621	48324	620	71091179
-512	153	4026	-846	-843	-9061	-29	-19	175	622	48378	621	71091180
-516	136	4054	-847	-850	-9083	-29	-19	175	623	48480	622	71091181
-520	136	4041	-846	-841	-9068	-31	11	163	624	48534	623	71091186
-515	137	4045	-843	-845	-9051	-31	11	163	625	48636	624	71091187
-511	132	4045	-843	-842	-9052	-30	-10	172	626	48690	625	71091188
-525	129	4029	-845	-842	-9048	-30	-10	172	627	48792	626	71091220
-505	135	4041	-841	-844	-9061	-13	1	169	628	48846	627	71091221
-524	144	4039	-836	-841	-9074	-13	1	169	629	48948	628	71091224
-508	142	4030	-846	-842	-9072	-24	-6	154	630	49002	629	71091224
-514	139	4052	-847	-841	-9045	-24	-6	154	631	49104	630	71091226
-544	134	4065	-842	-844	-9071	-12	-4	156	632	49158	631	71091230
-511	152	4043	-844	-849	-9064	-12	-4	156	633	49260	632	71091231
-500	126	4046	-853	-839	-9061	-6	10	154	634	49314	633	71091234
-547	127	4070	-850	-844	-9059	-6	10	154	635	49416	634	71091234
-516	142	4027	-841	-847	-9069	-5	-1	167	636	49470	635	71091238
-512	125	4022	-843	-846	-9071	-5	-1	167	637	49572	636	71091270
-515	136	4031	-844	-844	-9061	6	16	152	638	49626	637	71091271
-514	135	4036	-845	-850	-9057	6	16	152	639	49728	638	71091274
-505	140	4036	-844	-842	-9054	-5	3	149	640	49782	639	71091275
-489	141	4029	-848	-844	-9063	-5	3	149	641	49884	640	71091278
-494	122	4034	-850	-845	-9028	8	14	150	642	49938	641	71091278
-516	132	4027	-844	-846	-9081	8	14	150	643	50040	642	71091280
-510	138	4027	-843	-845	-9077	5	13	145	644	50094	643	71091283
-511	140	4032	-845	-842	-9078	5	13	145	645	50196	644	71091283
-506	122	4033	-843	-844	-9057	3	7	147	646	50250	645	71091318
-518	117	4017	-844	-846	-9076	3	7	147	647	50352	646	71091319
-501	141	4057	-844	-844	-9041	24	22	136	648	50406	647	71091321
-485	135	4056	-849	-848	-9063	24	22	136	649	50508	648	71091322
-499	109	4056	-848	-844	-9094	9	13	139	650	50562	649	71091322
-495	128	4015	-842	-843	-9076	9	13	139	651	50664	650	71091327
-511	143	4053	-840	-844	-9022	21	17	135	652	50718	651	71091328
-506	134	4029	-842	-841	-9039	21	17	135	653	50820	652	71091331
-495	129	4014	-841	-843	-9075	18	14	130	654	50874	653	71091332
-510	136	4042	-840	-840	-9077	18	14	130	655	50976	654	71091333
-523	134	4058	-842	-842	-9031	20	18	136	656	51030	655	71091367
-520	127	4025	-843	-845	-9056	20	18	136	657	51132	656	71091367
-522	141	4053	-846	-840	-9068	25	27	139	658	51186	657	71091369
-499	139	4051	-843	-847	-9051	25	27	139	659	51288	658	71091370
-503	125	4020	-843	-844	-9057	23	25	135	660	51342	659	71091371
-524	133	4046	-844	-840	-9066	23	25	135	661	51444	660	71091374
-500	134	4034	-847	-849	-9050	36	22	124	662	51498	661	71091374
-482	125	4044	-848	-847	-9042	36	22	124	663	51600	662	71091376
-505	122	4046	-845	-840	-9055	31	21	119	664	51654	663	71091381
-499	116	4016	-848	-844	-9072	31	21	119	665	51756	664	71091382
-497	118	4034	-848	-847	-9054	34	24	132	666	51810	665	71091417
-492	129	4019	-845	-844	-9054	34	24	132	667	51912	666	71091418
-495	124	4054	-842	-840	-9068	38	28	124	668	51966	667	71091420
-502	120	4044	-843	-843	-9055	38	28	124	669	52068	668	71091421
-492	123	4030	-843	-841	-9059	41	25	121	670	52122	669	71091421
-498	120	4033	-841	-844	-9081	41	25	121	671	52224	670	71091428
-490	129	4045	-844	-844	-9059	48	24	116	672	52278	671	71091428
-497	110	4032	-848	-847	-9071	48	24	116	673	52380	672	71091429
-483	112	4021	-844	-847	-9076	49	29	123	674	52434	673	71091429
-498	144	4025	-841	-847	-9070	49	29	123	675	52536	674	71091430
-507	138	4033	-843	-843	-9066	49	23	119	676	52590	675	71091463
-485	145	4012	-843	-847	-9070	49	23	119	677	52692	676	71091463
-493	129	4023	-840	-839	-9076	51	19	119	678	52746	677	71091468
-511	126	4038	-843	-838	-9083	51	19	119	679	52848	678	71091468
-487	124	4013	-844	-846	-9031	50	22	110	680	52902	679	71091469
-505	125	4012	-847	-845	-9057	50	22	110	681	53004	680	71091470
-504	132	4020	-845	-847	-9073	56	26	106	682	53058	681	71091471
-504	141	4035	-844	-843	-9070	56	26	106	683	53160	682	71091477
-501	128	4053	-841	-842	-9060	60	18	112	684	53214	683	71091477
-500	130	4043	-841	-840	-9072	60	18	112	685	53316	684	71091479
-497	128	4026	-845	-843	-9078	57	15	105	686	53370	685	71091512
-499	131	4014	-844	-844	-9040	57	15	105	687	53472	686	71091512
-490	132	4010	-840	-843	-9071	55	19	109	688	53526	687	71091515
-480	119	4017	-843	-842	-9086	55	19	109	689	53628	688	71091515
-507	131	4049	-843	-844	-9045	53	23	95	690	53682	689	71091518
-484	127	4028	-840	-842	-9041	53	23	95	691	53784	690	71091519
-485	134	4027	-839	-840	-9076	58	22	98	692	53837	691	71091520
-495	134	4019	-844	-844	-9067	58	22	98	693	53939	692	71091524
-492	122	4034	-846	-843	-9043	58	8	104	694	53993	693	71091526
-489	130	4029	-841	-843	-9056	58	8	104	695	54095	694	71091527
-491	138	4028	-842	-846	-9068	59	15	101	696	54149	695	71091559
-496	129	4025	-847	-847	-9061	59	15	101	697	54251	696	71091560
-495	130	4027	-843	-844	-9042	54	10	106	698	54305	697	71091563
-493	121	4040	-840	-843	-9084	54	10	106	699	54407	698	71091563
-502	141	4019	-843	-848	-9077	54	14	98	700	54461	699	71091567
-474	120	4000	-842	-848	-9063	54	14	98	701	54563	700	71091567
-494	151	4025	-843	-845	-9046	58	8	98	702	54617	701	71091567
-473	140	4027	-841	-845	-9043	58	8	98	703	54719	702	71091574
-478	127	4029	-846	-845	-9059	52	6	106	704	54773	703	71091574
-499	109	4020	-849	-839	-9035	52	6	106	705	54875	704	71091609
-485	121	3997	-844	-845	-9055	58	4	104	706	54929	705	71091609
-494	136	4027	-844	-843	-9051	58	4	104	707	55031	706	71091611
-485	135	4067	-844	-843	-9050	55	1	109	708	55085	707	71091613
-482	135	4041	-840	-841	-9048	55	1	109	709	55187	708	71091613
-477	127	4003	-844	-841	-9066	52	8	104	710	55241	709	71091617
-493	142	4038	-840	-842	-9058	52	8	104	711	55343	710	71091617
-476	133	4022	-844	-847	-9034	53	3	103	712	55397	711	71091619
-489	127	4022	-844	-842	-9080	53	3	103	713	55499	712	71091622
-492	129	4007	-842	-842	-9085	54	-4	110	714	55553	713	71091622
-488	145	4050	-842	-842	-9044	54	-4	110	715	55655	714	71091652
-483	154	4030	-844	-843	-9056	58	2	110	716	55709	715	71091652
-478	135	4037	-844	-842	-9088	58	2	110	717	55811	716	71091656
-501	147	4007	-844	-843	-9070	55	-3	107	718	55865	717	71091657
-489	145	4025	-840	-839	-9055	55	-3	107	719	55967	718	71091657
-485	135	4047	-846	-846	-9052	52	6	114	720	56021	719	71091659
-471	123	4058	-846	-847	-9071	52	6	114	721	56123	720	71091659
-460	141	4028	-840	-844	-9074	53	-3	113	722	56177	721	71091662
-490	144	4036	-840	-848	-9061	53	-3	113	723	56279	722	71091696
-472	150	4012	-843	-845	-9077	55	-7	123	724	56333	723	71091697
-489	126	4033	-846	-848	-9064	55	-7	123	725	56434	724	71091699
-489	139	4032	-840	-842	-9044	57	-3	121	726	56488	725	71091700
-482	152	4016	-840	-847	-9052	57	-3	121	727	56590	726	71091703
-463	140	4023	-848	-840	-9060	53	-3	119	728	56644	727	71091703
-471	145	4064	-844	-841	-9042	53	-3	119	729	56746	728	71091704
-485	148	4029	-842	-845	-9044	54	2	116	730	56800	729	71091707
-484	138	4011	-846	-846	-9066	54	2	116	731	56901	730	71091707
-462	152	4016	-846	-844	-9065	55	-7	119	732	56955	731	71091743
-475	136	4021	-845	-840	-9033	55	-7	119	733	57057	732	71091743
-501	147	4037	-839	-845	-9046	57	-7	129	734	57111	733	71091746
-471	153	4018	-843	-844	-9053	57	-7	129	735	57212	734	71091747
-485	146	4020	-842	-848	-9056	63	-5	129	736	57266	735	71091747
-479	151	4004	-842	-845	-9055	63	-5	129	737	57368	736	71091750
-478	133	4036	-846	-843	-9079	65	-11	131	738	57422	737	71091750
-488	158	4027	-846	-842	-9074	65	-11	131	739	57524	738	71091752
-482	173	4010	-844	-843	-9050	63	-13	123	740	57578	739	71091756
-475	159	4041	-849	-845	-9058	63	-13	123	741	57680	740	71091757
-496	160	4033	-844	-838	-9044	59	-13	137	742	57734	741	71091768
-466	142	4005	-841	-841	-9041	59	-13	137	743	57836	742	71091768
-467	151	4040	-846	-844	-9032	61	-15	137	744	57890	743	71091770
-483	152	4038	-846	-842	-9071	61	-15	137	745	57992	744	71091803
-487	159	4060	-839	-844	-9040	60	-16	128	746	58046	745	71091804
-482	170	4038	-843	-845	-9028	60	-16	128	747	58148	746	71091807
-458	151	4039	-844	-845	-9074	62	-14	140	748	58202	747	71091808
-496	149	4026	-846	-837	-9079	62	-14	140	749	58304	748	71091809
-480	166	4029	-840	-842	-9023	67	-17	137	750	58358	749	71091810
-472	163	4018	-844	-849	-9056	67	-17	137	751	58460	750	71091810
-496	147	4038	-850	-845	-9073	70	-18	142	752	58514	751	71091816
-485	136	4049	-844	-842	-9042	70	-18	142	753	58616	752	71091816
-484	147	4065	-840	-846	-9038	66	-22	144	754	58670	753	71091850
-495	156	4007	-844	-843	-9070	66	-22	144	755	58772	754	71091851
-488	156	4037	-846	-846	-9040	63	-27	145	756	58826	755	71091853
-472	161	4009	-840	-842	-9044	63	-27	145	757	58928	756	71091854
-475	172	4007	-837	-842	-9058	65	-27	145	758	58982	757	71091854
-489	162	4049	-844	-848	-9076	65	-27	145	759	59084	758	71091858
-484	156	4072	-845	-845	-9043	67	-33	145	760	59138	759	71091858
-476	152	4028	-841	-844	-9054	67	-33	145	761	59240	760	71091860
-483	149	4005	-843	-843	-9061	65	-27	147	762	59294	761	71091866
-488	146	4021	-852	-840	-9071	65	-27	147	763	59396	762	71091867
-493	151	4026	-846	-847	-9050	62	-36	150	764	59450	763	71091875
-488	155	4020	-843	-846	-9051	62	-36	150	765	59552	764	71091876
-475	155	4047	-847	-842	-9069	63	-35	151	766	59606	765	71091879
-474	147	4014	-845	-843	-9057	63	-35	151	767	59708	766	71091913
-477	152	4011	-843	-840	-9070	61	-41	157	768	59762	767	71091914
-475	160	4022	-838	-842	-9062	61	-41	157	769	59864	768	71091917
-478	162	4006	-842	-843	-9049	58	-36	152	770	59918	769	71091919
-474	153	4023	-847	-847	-9038	58	-36	152	771	60020	770	71091921
-481	163	4025	-850	-846	-9029	60	-42	150	772	60074	771	71091922
-490	159	4022	-845	-839	-9072	60	-42	150	773	60176	772	71091923
-488	167	4020	-842	-840	-9064	59	-45	153	774	60230	773	71091924
-483	142	4034	-850	-846	-9049	59	-45	153	775	60332	774	71091927
-491	146	4020	-845	-844	-9048	63	-47	153	776	60386	775	71091928
-498	154	4036	-841	-843	-9070	63	-47	153	777	60488	776	71091961
-492	161	4045	-845	-847	-9040	53	-49	155	778	60542	777	71091962
-479	166	4049	-845	-842	-9063	53	-49	155	779	60644	778	71091965
-480	153	4018	-843	-844	-9077	59	-49	153	780	60698	779	71091965
-515	164	4036	-840	-844	-9055	59	-49	153	781	60800	780	71091968
-491	153	4049	-847	-848	-9052	55	-51	151	782	60854	781	71091969
-482	143	4043	-844	-845	-9064	55	-51	151	783	60956	782	71091969
-503	150	4035	-841	-839	-9077	48	-56	152	784	61010	783	71091972
-489	163	4003	-843	-849	-9045	48	-56	152	785	61112	784	71091973
-511	182	4013	-846	-844	-9073	54	-60	160	786	61166	785	71091986
-517	170	4034	-846	-839	-9061	54	-60	160	787	61268	786	71091987
-498	167	4019	-846	-845	-9050	53	-63	155	788	61322	787	71091987
-508	186	4048	-847	-840	-9041	53	-63	155	789	61424	788	71092020
-482	168	4009	-847	-845	-9072	51	-61	159	790	61478	789	71092021
-482	141	4036	-847	-844	-9073	51	-61	159	791	61580	790	71092024
-492	141	4020	-840	-839	-9051	42	-64	166	792	61634	791	71092024
-493	164	4021	-840	-846	-9093	42	-64	166	793	61736	792	71092026
-482	159	4028	-847	-845	-9092	44	-66	156	794	61790	793	71092027
-489	174	4038	-843	-844	-9061	44	-66	156	795	61892	794	71092028
-518	165	4026	-845	-840	-9058	47	-65	159	796	61946	795	71092031
-503	164	4014	-845	-838	-9078	47	-65	159	797	62048	796	71092032
-492	163	4006	-846	-840	-9066	40	-64	160	798	62102	797	71092035
-502	157	4029	-847	-843	-9074	40	-64	160	799	62204	798	71092068
-492	159	4037	-845	-842	-9066	37	-75	159	800	62258	799	71092068
-492	181	4051	-846	-849	-9081	37	-75	159	801	62360	800	71092071
-510	172	4020	-843	-846	-9067	43	-67	159	802	62414	801	71092072
-499	163	4012	-844	-845	-9061	43	-67	159	803	62516	802	71092074
-511	167	4010	-847	-844	-9069	37	-71	163	804	62570	803	71092075
-500	176	4053	-849	-842	-9066	37	-71	163	805	62672	804	71092075
-509	160	4034	-846	-846	-9070	37	-71	155	806	62726	805	71092082
-519	160	4023	-846	-844	-9066	37	-71	155	807	62828	806	71092083
-497	160	4030	-845	-843	-9069	33	-71	161	808	62882	807	71092085
-480	180	4038	-844	-845	-9064	33	-71	161	809	62984	808	71092118
-504	173	4047	-844	-840	-9068	30	-72	158	810	63038	809	71092118
-518	163	4035	-844	-844	-9102	30	-72	158	811	63140	810	71092121
-501	162	4018	-846	-842	-9063	26	-74	150	812	63194	811	71092122
-493	146	4057	-842	-847	-9053	26	-74	150	813	63296	812	71092124
-485	161	4073	-844	-847	-9085	20	-72	150	814	63350	813	71092125
-506	174	4057	-845	-848	-9076	20	-72	150	815	63452	814	71092126
-509	157	4033	-840	-844	-9055	20	-70	154	816	63506	815	71092130
-505	168	4023	-847	-846	-9060	20	-70	154	817	63608	816	71092131
-508	166	4020	-848	-845	-9076	12	-76	156	818	63662	817	71092166
-516	167	4033	-848	-844	-9066	12	-76	156	819	63764	818	71092166
-505	189	4042	-845	-842	-9071	18	-68	150	820	63818	819	71092168
-504	169	4019	-842	-843	-9052	18	-68	150	821	63920	820	71092169
-505	152	4040	-848	-845	-9060	13	-75	147	822	63974	821	71092170
-497	157	4023	-845	-841	-9058	13	-75	147	823	64076	822	71092173
-526	170	4028	-841	-843	-9050	11	-73	149	824	64130	823	71092173
-512	159	3988	-844	-844	-9093	11	-73	149	825	64232	824	71092175
-510	168	4040	-848	-846	-9056	7	-75	149	826	64286	825	71092180
-516	166	4043	-844	-843	-9067	7	-75	149	827	64388	826	71092181
-511	168	4030	-843	-845	-9069	6	-76	158	828	64442	827	71092216
-493	164	4023	-845	-843	-9078	6	-76	158	829	64544	828	71092219
-515	159	4020	-847	-842	-9074	-1	-69	151	830	64598	829	71092219
-522	159	4041	-845	-847	-9072	-1	-69	151	831	64700	830	71092219
-500	170	4028	-843	-848	-9075	4	-70	148	832	64754	831	71092220
-510	161	4048	-845	-841	-9086	4	-70	148	833	64856	832	71092223
-517	154	4027	-848	-845	-9065	-8	-68	144	834	64910	833	71092223
-520	177	4066	-844	-845	-9053	-8	-68	144	835	65012	834	71092226
-511	166	4018	-842	-847	-9074	-6	-74	146	836	65066	835	71092228
-502	150	4034	-847	-847	-9058	-6	-74	146	837	65168	836	71092228
-500	157	4032	-846	-849	-9049	-8	-76	144	838	65222	837	71092263
-515	164	4034	-844	-846	-9071	-8	-76	144	839	65324	838	71092263
-507	158	4035	-843	-846	-9072	-16	-68	142	840	65378	839	71092266
-508	160	4038	-846	-848	-9045	-16	-68	142	841	65480	840	71092292
-529	166	4047	-845	-844	-9086	-13	-67	145	842	65534	841	71092292
-510	157	4041	-845	-843	-9083	-13	-67	145	843	65636	842	71092295
-510	166	4051	-844	-843	-9055	-23	-65	141	844	65690	843	71092295
-506	161	4032	-851	-844	-9040	-23	-65	141	845	65792	844	71092298
-515	157	4036	-850	-847	-9044	-21	-59	143	846	65846	845	71092299
-530	144	4026	-843	-842	-9049	-21	-59	143	847	65948	846	71092299
-527	156	4028	-843	-838	-9047	-24	-60	136	848	66002	847	71092303
-516	162	4026	-845	-842	-9080	-24	-60	136	849	66104	848	71092303
-525	169	4015	-844	-846	-9093	-29	-59	139	850	66158	849	71092306
-518	155	4020	-848	-845	-9033	-29	-59	139	851	66260	850	71092307
-509	148	4020	-845	-845	-9046	-28	-58	140	852	66314	851	71092309
-509	143	4025	-847	-847	-9072	-28	-58	140	853	66416	852	71092311
-504	152	4015	-848	-846	-9082	-37	-53	141	854	66470	853	71092312
-522	166	4029	-841	-849	-9069	-37	-53	141	855	66572	854	71092348
-502	160	4004	-841	-848	-9063	-28	-54	144	856	66626	855	71092348
-512	173	4032	-841	-840	-9056	-28	-54	144	857	66728	856	71092350
-516	161	4048	-844	-843	-9074	-36	-52	142	858	66782	857	71092352
-519	128	4031	-845	-840	-9054	-36	-52	142	859	66884	858	71092354
-513	142	4023	-846	-838	-9079	-45	-45	143	860	66938	859	71092355
-505	142	4034	-847	-842	-9057	-45	-45	143	861	67040	860	71092355
-520	131	4048	-847	-845	-9048	-40	-44	148	862	67094	861	71092357
-526	149	4033	-842	-845	-9065	-40	-44	148	863	67196	862	71092360
-518	158	4015	-840	-847	-9073	-56	-36	140	864	67250	863	71092361
-518	142	4048	-847	-843	-9038	-56	-36	140	865	67352	864	71092397
-507	145	4029	-847	-851	-9068	-41	-49	157	866	67406	865	71092397
-503	166	4020	-841	-845	-9076	-41	-49	157	867	67508	866	71092399
-508	150	4024	-848	-842	-9045	-55	-25	155	868	67562	867	71092400
-510	119	4035	-849	-848	-9044	-55	-25	155	869	67664	868	71092401
-516	138	4019	-842	-845	-9070	-51	-29	155	870	67718	869	71092404
-529	155	4019	-840	-841	-9061	-51	-29	155	871	67820	870	71092406
-519	149	4021	-848	-845	-9058	-53	-27	153	872	67874	871	71092407
-507	143	4017	-847	-844	-9049	-53	-27	153	873	67976	872	71092412
-510	139	4033	-845	-844	-9069	-57	-21	157	874	68030	873	71092412
-524	160	4050	-843	-845	-9070	-57	-21	157	875	68132	874	71092421
-518	134	4071	-844	-846	-9054	-44	-26	172	876	68186	875	71092422
-521	125	4069	-843	-846	-9066	-44	-26	172	877	68288	876	71092424
-523	146	4057	-841	-843	-9074	-49	-5	163	878	68342	877	71092457
-519	141	4000	-841	-845	-9049	-49	-5	163	879	68444	878	71092457
-529	155	4067	-843	-844	-9066	-37	-21	169	880	68498	879	71092460
-517	143	4018	-846	-844	-9078	-37	-21	169	881	68600	880	71092460
-505	148	4028	-845	-844	-9052	-35	-9	171	882	68654	881	71092464
-519	128	4036	-849	-841	-9046	-35	-9	171	883	68756	882	71092466
-520	124	4033	-846	-841	-9088	-35	1	161	884	68810	883	71092467
-522	124	4039	-844	-842	-9070	-35	1	161	885	68912	884	71092469
-522	128	4039	-844	-841	-9051	-28	-12	174	886	68966	885	71092471
-527	133	4031	-841	-844	-9058	-28	-12	174	887	69068	886	71092504
-518	146	4009	-844	-848	-9093	-16	8	164	888	69122	887	71092505
-514	136	4028	-847	-840	-9057	-16	8	164	889	69224	888	71092506
-492	133	4036	-846	-845	-9074	-21	-11	167	890	69278	889	71092508
-501	142	4031	-844	-845	-9073	-21	-11	167	891	69380	890	71092508
-508	130	4042	-846	-840	-9069	-13	3	161	892	69434	891	71092511
-509	140	4031	-844	-846	-9042	-13	3	161	893	69536	892	71092512
-534	147	4053	-841	-841	-9077	-18	6	150	894	69590	893	71092514
-526	149	4051	-840	-841	-9076	-18	6	150	895	69692	894	71092520
-499	155	4033	-845	-844	-9020	-6	-10	164	896	69746	895	71092520
-524	129	4022	-847	-846	-9039	-6	-10	164	897	69848	896	71092530
-510	142	4016	-843	-844	-9073	-1	9	157	898	69902	897	71092531
-508	132	4010	-841	-848	-9050	-1	9	157	899	70004	898	71092538
-516	130	4019	-846	-848	-9046	-10	-10	156	900	70058	899	71092547
-508	129	4040	-839	-840	-9069	-10	-10	156	901	70160	900	71092551
-517	146	4039	-839	-838	-9071	9	13	149	902	70214	901	71092579
-487	149	4046	-841	-846	-9036	9	13	149	903	70316	902	71092579
-520	129	4040	-841	-840	-9047	2	6	148	904	70370	903	71092581
-513	115	4024	-842	-840	-9073	2	6	148	905	70472	904	71092583
-509	124	4053	-846	-841	-9043	3	9	147	906	70526	905	71092583
-518	110	4058	-847	-846	-9057	3	9	147	907	70628	906	71092586
-524	130	4043	-844	-848	-9052	13	17	141	908	70682	907	71092587
-503	118	4037	-842	-847	-9081	13	17	141	909	70784	908	71092589
-525	122	4064	-839	-845	-9060	6	12	144	910	70838	909	71092590
-514	130	4039	-845	-842	-9052	6	12	144	911	70940	910	71092590
-511	132	4031	-843	-843	-9055	18	16	134	912	70994	911	71092626
-494	127	4017	-840	-848	-9042	18	16	134	913	71096	912	71092627
-500	131	4019	-846	-846	-9044	7	19	135	914	71150	913	71092630
-497	123	4038	-846	-844	-9053	7	19	135	915	71252	914	71092630
-524	132	4078	-844	-848	-9090	22	20	132	916	71306	915	71092633
-513	124	4037	-848	-840	-9059	22	20	132	917	71408	916	71092634
-526	132	4042	-846	-843	-9067	21	21	131	918	71462	917	71092634
-501	130	4038	-843	-842	-9047	21	21	131	919	71564	918	71092638
-512	132	4034	-844	-841	-9086	17	25	135	920	71618	919	71092638
-513	127	4041	-845	-843	-9035	17	25	135	921	71720	920	71092641
-500	135	4030	-844	-840	-9063	25	21	129	922	71774	921	71092674
-496	125	4033	-845	-841	-9080	25	21	129	923	71876	922	71092677
-509	131	4018	-846	-844	-9039	26	22	136	924	71930	923	71092678
-496	127	4025	-844	-842	-9037	26	22	136	925	72032	924	71092678
-519	136	4045	-843	-844	-9072	32	26	128	926	72086	925	71092680
-489	135	4010	-846	-845	-9047	32	26	128	927	72188	926	71092681
-496	124	4022	-845	-839	-9043	33	23	125	928	72242	927	71092682
-507	124	4027	-847	-844	-9058	33	23	125	929	72344	928	71092686
-488	134	4057	-845	-845	-9074	32	22	124	930	72398	929	71092687
-500	123	4024	-847	-838	-9062	32	22	124	931	72500	930	71092721
-504	130	4046	-843	-849	-9040	43	23	121	932	72554	931	71092722
-501	131	4052	-841	-844	-9066	43	23	121	933	72656	932	71092724
-505	129	4017	-844	-850	-9051	37	23	123	934	72710	933	71092727
-498	133	4057	-848	-844	-9044	37	23	123	935	72812	934	71092728
-497	126	4017	-842	-846	-9062	48	26	112	936	72866	935	71092729
-470	133	4054	-843	-842	-9077	48	26	112	937	72968	936	71092729
-481	116	4034	-846	-842	-9040	46	24	112	938	73022	937	71092732
-505	126	4024	-846	-843	-9042	46	24	112	939	73124	938	71092737
-483	117	4041	-846	-846	-9058	47	27	119	940	73178	939	71092737
-498	129	4024	-842	-847	-9058	47	27	119	941	73280	940	71092771
-491	137	4017	-846	-840	-9042	55	21	109	942	73334	941	71092772
-501	127	4037	-841	-843	-9064	55	21	109	943	73436	942	71092774
-496	135	4062	-842	-846	-9058	53	21	115	944	73490	943	71092775
-486	120	4039	-846	-838	-9052	53	21	115	945	73592	944	71092775
-517	110	4039	-850	-837	-9064	53	23	105	946	73646	945	71092779
-500	127	4044	-839	-843	-9066	53	23	105	947	73748	946	71092779
-482	127	4034	-844	-844	-9070	57	21	105	948	73802	947	71092781
-504	121	4031	-845	-837	-9060	57	21	105	949	73904	948	71092785
-484	129	4025	-844	-844	-9066	54	16	112	950	73958	949	71092786
-493	127	4031	-844	-846	-9081	54	16	112	951	74060	950	71092819
-502	140	4038	-844	-842	-9058	54	18	108	952	74114	951	71092819
-492	129	4022	-843	-847	-9028	54	18	108	953	74216	952	71092821
-486	130	4048	-844	-843	-9090	57	19	111	954	74270	953	71092823
-494	132	3994	-843	-844	-9037	57	19	111	955	74372	954	71092823
-491	115	4014	-845	-840	-9069	54	10	98	956	74426	955	71092826
-484	135	4020	-840	-845	-9062	54	10	98	957	74528	956	71092827
-469	147	4048	-844	-847	-9073	60	18	102	958	74582	957	71092830
-495	123	4030	-844	-843	-9024	60	18	102	959	74684	958	71092830
-493	118	4049	-843	-844	-9048	58	8	106	960	74738	959	71092834
-482	129	4012	-843	-848	-9078	58	8	106	961	74840	960	71092866
-488	137	3994	-841	-847	-9052	53	5	103	962	74894	961	71092867
-515	118	4041	-846	-846	-9045	53	5	103	963	74996	962	71092870
-494	133	4034	-840	-849	-9059	58	14	104	964	75050	963	71092870
-487	162	4042	-843	-845	-9070	58	14	104	965	75152	964	71092872
-487	141	4043	-844	-847	-9056	56	6	104	966	75206	965	71092876
-481	124	4040	-846	-847	-9055	56	6	104	967	75308	966	71092877
-492	130	4002	-841	-845	-9071	56	6	108	968	75362	967	71092879
-475	131	4038	-847	-847	-9049	56	6	108	969	75464	968	71092879
-481	125	4035	-846	-850	-9031	58	4	104	970	75518	969	71092882
-481	130	4025	-840	-850	-9042	58	4	104	971	75620	970	71092930
-483	143	4018	-842	-839	-9051	57	-1	105	972	75674	971	71092932
-499	136	4020	-843	-839	-9056	57	-1	105	973	75776	972	71092934
-478	143	4034	-845	-846	-9062	55	1	109	974	75830	973	71092937
-483	144	4029	-842	-844	-9077	55	1	109	975	75932	974	71092938
-494	134	4037	-847	-842	-9039	50	2	106	976	75986	975	71092939
-469	144	4020	-848	-846	-9055	50	2	106	977	76088	976	71092940
-469	138	4033	-841	-840	-9070	57	-3	103	978	76142	977	71092941
-489	156	4043	-843	-843	-9063	57	-3	103	979	76244	978	71092942
-482	146	4013	-847	-847	-9069	50	0	106	980	76298	979	71092944
-490	130	4005	-841	-847	-9073	50	0	106	981	76400	980	71092950
-460	171	4027	-841	-843	-9100	52	-8	114	982	76454	981	71092951
-473	144	4039	-844	-839	-9045	52	-8	114	983	76556	982	71092954
-496	133	4028	-842	-843	-9039	57	-5	115	984	76610	983	71092957
-489	125	4033	-844	-839	-9082	57	-5	115	985	76712	984	71092989
-466	143	4036	-839	-841	-9058	56	-10	118	986	76766	985	71092989
-489	127	4018	-845	-846	-9051	56	-10	118	987	76868	986	71092991
-476	138	4016	-842	-850	-9040	62	-4	120	988	76922	987	71092993
-489	148	4050	-835	-846	-9083	62	-4	120	989	77024	988	71092993
-477	135	4051	-844	-847	-9071	56	0	116	990	77078	989	71092996
-486	132	4023	-845	-849	-9042	56	0	116	991	77180	990	71092997
-468	147	4039	-840	-847	-9056	56	-6	118	992	77234	991	71092999
-473	142	4031	-842	-836	-9064	56	-6	118	993	77336	992	71093001
-475	126	4038	-844	-843	-9036	56	-8	124	994	77390	993	71093002
-484	139	4046	-845	-846	-9076	56	-8	124	995	77492	994	71093036
-472	153	4016	-843	-843	-9058	66	-8	130	996	77546	995	71093037
-485	142	4018	-839	-847	-9057	66	-8	130	997	77647	996	71093039
-462	143	4032	-841	-845	-9035	61	-9	127	998	77702	997	71093040
-480	158	4038	-840	-843	-9066	61	-9	127	999	77804	998	71093040
-482	144	4005	-844	-845	-9071	62	-8	124	1000	77858	999	71093044
-476	132	4025	-844	-843	-9048	62	-8	124	1001	77960	1000	71093044
-485	138	4025	-841	-847	-9078	58	-10	130	1002	78014	1001	71093046
-472	151	4014	-842	-844	-9085	58	-10	130	1003	78116	1002	71093051
-483	158	4051	-844	-841	-9061	65	-11	135	1004	78170	1003	71093052
-480	163	4054	-843	-848	-9050	65	-11	135	1005	78272	1004	71093086
-484	154	4021	-840	-843	-9059	68	-18	138	1006	78326	1005	71093087
-481	144	4029	-843	-834	-9036	68	-18	138	1007	78428	1006	71093089
-470	156	4035	-845	-840	-9013	70	-16	132	1008	78482	1007	71093090
-499	146	4020	-841	-841	-9052	70	-16	132	1009	78584	1008	71093090
-479	144	4032	-842	-845	-9059	65	-21	135	1010	78638	1009	71093094
-498	164	4028	-845	-847	-9057	65	-21	135	1011	78740	1010	71093094
-485	153	4030	-842	-844	-9056	62	-16	138	1012	78794	1011	71093096
-475	158	4024	-843	-841	-9054	62	-16	138	1013	78896	1012	71093098
-484	152	4023	-843	-839	-9059	66	-24	140	1014	78950	1013	71093098
-504	154	4015	-842	-841	-9032	66	-24	140	1015	79052	1014	71093134
-470	161	4024	-840	-842	-9064	62	-22	148	1016	79106	1015	71093134
-484	168	4028	-846	-840	-9081	62	-22	148	1017	79208	1016	71093137
-487	125	4041	-847	-848	-9070	64	-24	144	1018	79262	1017	71093138
-469	153	4021	-844	-846	-9047	64	-24	144	1019	79364	1018	71093140
-481	165	4001	-839	-840	-9074	67	-31	145	1020	79418	1019	71093142
-476	156	4033	-846	-845	-9060	67	-31	145	1021	79520	1020	71093142
-487	141	4056	-843	-841	-9046	64	-32	146	1022	79574	1021	71093146
-469	146	4029	-840	-841	-9057	64	-32	146	1023	79676	1022	71093146
-483	157	4022	-843	-842	-9063	69	-33	143	1024	79730	1023	71093149
-479	148	4013	-847	-847	-9054	69	-33	143	1025	79832	1024	71093181
-475	162	4027	-841	-845	-9032	69	-39	147	1026	79886	1025	71093182
-481	155	4040	-845	-844	-9073	69	-39	147	1027	79988	1026	71093185
-495	167	4018	-842	-844	-9094	68	-38	150	1028	80042	1027	71093186
-496	142	3992	-851	-848	-9053	68	-38	150	1029	80143	1028	71093187
-490	152	4044	-844	-847	-9042	59	-39	143	1030	80198	1029	71093189
-490	172	4029	-843	-848	-9065	59	-39	143	1031	80299	1030	71093189
-489	156	4065	-847	-847	-9053	62	-44	146	1032	80354	1031	71093196
-473	154	4026	-841	-840	-9056	62	-44	146	1033	80456	1032	71093197
-474	168	4014	-841	-845	-9066	56	-44	152	1034	80510	1033	71093199
-503	164	4016	-844	-842	-9047	56	-44	152	1035	80612	1034	71093232
-490	148	4032	-844	-840	-9063	64	-42	158	1036	80666	1035	71093232
-482	135	4004	-842	-845	-9050	64	-42	158	1037	80768	1036	71093235
-492	169	4032	-843	-839	-9052	57	-47	153	1038	80822	1037	71093235
-472	145	4035	-844	-842	-9048	57	-47	153	1039	80924	1038	71093237
-487	155	4026	-847	-843	-9029	56	-48	152	1040	80978	1039	71093239
-477	171	4030	-840	-844	-9067	56	-48	152	1041	81079	1040	71093239
-489	151	4043	-846	-849	-9077	56	-50	152	1042	81133	1041	71093244
-493	175	4045	-845	-844	-9066	56	-50	152	1043	81235	1042	71093244
-481	166	4048	-842	-841	-9076	55	-51	161	1044	81289	1043	71093279
-490	175	4035	-843	-845	-9052	55	-51	161	1045	81391	1044	71093283
-503	159	4012	-843	-842	-9045	52	-60	164	1046	81445	1045	71093284
-492	156	4027	-845	-842	-9063	52	-60	164	1047	81547	1046	71093284
-502	177	4040	-846	-843	-9073	50	-54	158	1048	81601	1047	71093287
-488	173	4016	-842	-845	-9096	50	-54	158	1049	81703	1048	71093288
-501	172	3992	-841	-847	-9063	48	-58	156	1050	81757	1049	71093289
-511	172	4024	-843	-845	-9077	48	-58	156	1051	81859	1050	71093290
-472	167	4047	-846	-843	-9086	44	-56	156	1052	81913	1051	71093292
-488	158	4008	-845	-840	-9065	44	-56	156	1053	82015	1052	71093293
-487	155	4046	-845	-846	-9039	49	-61	157	1054	82069	1053	71093328
-489	168	4005	-842	-845	-9063	49	-61	157	1055	82171	1054	71093329
-511	164	4016	-848	-848	-9087	46	-62	158	1056	82225	1055	71093330
-491	151	4026	-845	-844	-9078	46	-62	158	1057	82327	1056	71093333
-495	185	4022	-841	-844	-9087	42	-62	156	1058	82381	1057	71093336
-508	178	4008	-847	-839	-9101	42	-62	156	1059	82483	1058	71093337
-484	160	4030	-846	-851	-9073	42	-68	166	1060	82537	1059	71093338
-504	172	4014	-845	-839	-9054	42	-68	166	1061	82639	1060	71093338
-506	165	4038	-844	-843	-9072	39	-69	157	1062	82693	1061	71093343
-499	170	4038	-851	-849	-9063	39	-69	157	1063	82795	1062	71093343
-500	176	4021	-847	-845	-9061	35	-75	159	1064	82849	1063	71093379
-521	164	4028	-840	-847	-9057	35	-75	159	1065	82951	1064	71093379
-500	176	4017	-848	-853	-9112	36	-68	162	1066	83005	1065	71093382
-505	177	3996	-845	-842	-9071	36	-68	162	1067	83107	1066	71093383
-511	164	3992	-845	-848	-9060	33	-69	153	1068	83161	1067	71093383
-496	173	4002	-846	-846	-9104	33	-69	153	1069	83263	1068	71093387
-503	164	4036	-847	-841	-9098	28	-72	152	1070	83317	1069	71093387
-507	154	4029	-851	-844	-9081	28	-72	152	1071	83419	1070	71093389
-488	163	4039	-844	-845	-9072	26	-72	152	1072	83473	1071	71093390
-501	183	4017	-841	-839	-9081	26	-72	152	1073	83575	1072	71093391
-519	165	4020	-846	-848	-9068	24	-70	164	1074	83629	1073	71093426
-504	174	3998	-845	-845	-9044	24	-70	164	1075	83731	1074	71093426
-513	168	4021	-845	-846	-9065	20	-74	156	1076	83785	1075	71093429
-499	155	4031	-844	-842	-9062	20	-74	156	1077	83887	1076	71093429
-492	152	4016	-845	-846	-9057	22	-76	150	1078	83941	1077	71093432
-505	160	4010	-845	-849	-9086	22	-76	150	1079	84043	1078	71093433
-516	159	4042	-845	-845	-9080	21	-71	155	1080	84097	1079	71093433
-494	157	4010	-845	-841	-9073	21	-71	155	1081	84199	1080	71093436
-516	175	4007	-847	-844	-9051	19	-75	153	1082	84253	1081	71093437
-493	167	4030	-846	-846	-9071	19	-75	153	1083	84355	1082	71093440
-523	168	4040	-849	-843	-9073	14	-76	150	1084	84409	1083	71093473
-521	163	4041	-848	-842	-9070	14	-76	150	1085	84511	1084	71093473
-501	148	4045	-843	-847	-9072	12	-74	156	1086	84565	1085	71093476
-522	152	4037	-845	-845	-9089	12	-74	156	1087	84667	1086	71093477
-518	166	4034	-846	-846	-9079	4	-70	144	1088	84721	1087	71093479
-510	155	4041	-844	-849	-9084	4	-70	144	1089	84823	1088	71093480
-517	164	3999	-845	-847	-9055	4	-70	148	1090	84877	1089	71093481
-503	170	4011	-844	-848	-9063	4	-70	148	1091	84979	1090	71093485
-495	164	4021	-849	-851	-9046	-1	-75	147	1092	85033	1091	71093486
-513	161	4028	-849	-840	-9051	-1	-75	147	1093	85135	1092	71093489
-542	156	4041	-848	-842	-9071	-8	-74	144	1094	85189	1093	71093522
-496	155	4036	-847	-847	-9060	-8	-74	144	1095	85291	1094	71093522
-508	164	4019	-843	-842	-9057	0	-72	146	1096	85345	1095	71093526
-511	166	4025	-846	-844	-9093	0	-72	146	1097	85446	1096	71093527
-519	160	4015	-848	-850	-9082	-4	-70	142	1098	85500	1097	71093528
-503	168	4015	-844	-850	-9056	-4	-70	142	1099	85602	1098	71093529
-514	153	4036	-843	-844	-9061	-7	-71	147	1100	85656	1099	71093530
-512	143	4053	-851	-846	-9057	-7	-71	147	1101	85758	1100	71093534
-520	141	4050	-844	-843	-9047	-9	-73	145	1102	85812	1101	71093535
-525	169	4015	-840	-845	-9070	-9	-73	145	1103	85914	1102	71093570
-514	173	4024	-844	-844	-9089	-9	-71	147	1104	85968	1103	71093571
-515	177	4053	-848	-846	-9076	-9	-71	147	1105	86069	1104	71093571
-514	160	4032	-844	-847	-9062	-16	-68	148	1106	86123	1105	71093577
-509	178	4034	-840	-849	-9089	-16	-68	148	1107	86225	1106	71093577
-512	158	4038	-846	-840	-9089	-21	-63	135	1108	86279	1107	71093580
-529	137	4032	-850	-844	-9058	-21	-63	135	1109	86381	1108	71093581
-529	168	4037	-844	-851	-9043	-30	-64	144	1110	86435	1109	71093583
-527	145	4017	-843	-844	-9067	-30	-64	144	1111	86537	1110	71093584
-510	144	4040	-842	-846	-9101	-30	-62	134	1112	86591	1111	71093585
-502	157	4017	-843	-854	-9087	-30	-62	134	1113	86693	1112	71093619
-532	160	4023	-842	-840	-9069	-35	-57	141	1114	86747	1113	71093619
-521	151	4026	-848	-844	-9074	-35	-57	141	1115	86848	1114	71093621
-514	146	4054	-847	-846	-9077	-28	-58	148	1116	86902	1115	71093623
-506	165	4036	-844	-840	-9064	-28	-58	148	1117	87004	1116	71093623
-532	150	4049	-846	-845	-9089	-36	-46	140	1118	87058	1117	71093627
-518	150	4040	-846	-845	-9059	-36	-46	140	1119	87160	1118	71093627
-529	140	4053	-840	-846	-9044	-41	-47	143	1120	87214	1119	71093629
-522	147	4027	-842	-843	-9082	-41	-47	143	1121	87316	1120	71093632
-529	171	4026	-845	-842	-9073	-43	-49	147	1122	87370	1121	71093632
-526	166	4017	-845	-844	-9071	-43	-49	147	1123	87471	1122	71093666
-505	147	4057	-846	-845	-9050	-43	-45	151	1124	87526	1123	71093667
-516	144	4008	-849	-847	-9071	-43	-45	151	1125	87628	1124	71093669
-523	145	4023	-848	-850	-9055	-43	-43	149	1126	87682	1125	71093670
-523	160	4018	-842	-846	-9042	-43	-43	149	1127	87784	1126	71093671
-513	143	4025	-844	-842	-9069	-55	-35	143	1128	87838	1127	71093674
-516	148	4020	-846	-843	-9068	-55	-35	143	1129	87940	1128	71093674
-524	156	4015	-845	-845	-9049	-50	-36	152	1130	87994	1129	71093677
-519	143	4026	-848	-843	-9070	-50	-36	152	1131	88096	1130	71093679
-512	138	4009	-852	-843	-9062	-53	-25	155	1132	88150	1131	71093680
-511	140	4039	-848	-841	-9068	-53	-25	155	1133	88252	1132	71093715
-510	139	4030	-843	-843	-9066	-54	-22	154	1134	88306	1133	71093716
-520	135	4031	-842	-845	-9087	-54	-22	154	1135	88408	1134	71093719
-519	141	4048	-845	-846	-9069	-48	-30	158	1136	88462	1135	71093719
-530	152	4027	-842	-846	-9059	-48	-30	158	1137	88564	1136	71093721
-502	135	4035	-843	-845	-9064	-55	-7	155	1138	88618	1137	71093723
-507	133	4034	-848	-846	-9066	-55	-7	155	1139	88720	1138	71093723
-519	130	4038	-850	-844	-9062	-47	-23	171	1140	88774	1139	71093728
-503	151	4018	-846	-842	-9051	-47	-23	171	1141	88876	1140	71093728
-511	131	4035	-843	-843	-9069	-42	-2	170	1142	88930	1141	71093733
-519	141	4043	-847	-846	-9087	-42	-2	170	1143	89032	1142	71093765
-523	156	4031	-844	-846	-9054	-49	-19	165	1144	89086	1143	71093765
-525	155	4041	-841	-843	-9065	-49	-19	165	1145	89188	1144	71093768
-524	128	4062	-844	-841	-9076	-23	-15	171	1146	89242	1145	71093768
-520	135	4033	-851	-843	-9067	-23	-15	171	1147	89344	1146	71093770
-540	114	4026	-848	-845	-9073	-28	8	164	1148	89398	1147	71093772
-497	119	4046	-845	-845	-9088	-28	8	164	1149	89500	1148	71093772
-522	142	4035	-845	-847	-9066	-20	-12	170	1150	89554	1149	71093777
-522	132	4016	-841	-842	-9054	-20	-12	170	1151	89655	1150	71093777
-514	131	4024	-840	-844	-9050	-14	12	160	1152	89709	1151	71093780
-528	135	4042	-842	-839	-9080	-14	12	160	1153	89811	1152	71093813
-531	147	4036	-844	-845	-9064	-22	-10	162	1154	89865	1153	71093814
-502	161	4022	-844	-844	-9043	-22	-10	162	1155	89967	1154	71093817
-502	127	4053	-848	-837	-9081	-6	4	166	1156	90020	1155	71093818
-508	135	4049	-842	-846	-9066	-6	4	166	1157	90122	1156	71093819
-515	144	4027	-840	-841	-9052	-10	6	158	1158	90176	1157	71093820
-515	133	4048	-842	-842	-9064	-10	6	158	1159	90278	1158	71093821
-522	142	4020	-844	-846	-9078	-7	3	161	1160	90332	1159	71093826
-519	156	4039	-843	-844	-9072	-7	3	161	1161	90433	1160	71093827
-506	146	4022	-845	-848	-9064	-2	18	150	1162	90487	1161	71093860
-491	142	4007	-851	-847	-9065	-2	18	150	1163	90589	1162	71093861
-496	121	4063	-846	-846	-9063	-7	-1	159	1164	90643	1163	71093863
-495	138	4029	-844	-849	-9059	-7	-1	159	1165	90745	1164	71093867
-499	136	4028	-842	-838	-9045	5	15	149	1166	90799	1165	71093867
-522	143	4030	-846	-841	-9074	5	15	149	1167	90901	1166	71093868
-529	145	4020	-845	-843	-9050	6	10	138	1168	90955	1167	71093868
-533	130	4051	-845	-838	-9056	6	10	138	1169	91057	1168	71093870
-515	123	4060	-849	-841	-9066	1	11	137	1170	91111	1169	71093875
-508	130	4030	-846	-848	-9054	1	11	137	1171	91213	1170	71093877
-500	127	4052	-847	-846	-9039	18	12	138	1172	91267	1171	71093910
-493	113	4022	-846	-848	-9056	18	12	138	1173	91369	1172	71093911
-500	112	4027	-844	-847	-9060	10	8	148	1175	91394	1173	71093914
-491	127	4027	-846	-847	-9055	13	19	131	1176	91448	1174	71093917
-492	131	4002	-843	-842	-9085	13	19	131	1177	91550	1175	71093918
-483	137	3992	-844	-841	-9072	15	25	137	1178	91604	1176	71093919
-507	130	4040	-845	-836	-9051	15	25	137	1179	91706	1177	71093921
-496	109	4015	-846	-841	-9061	15	11	133	1180	91760	1178	71093922
-507	106	4029	-843	-848	-9065	15	11	133	1181	91862	1179	71093924
-512	128	4038	-841	-845	-9062	26	18	136	1182	91916	1180	71093961
-486	129	4037	-843	-842	-9057	26	18	136	1183	92018	1181	71093962
-492	120	4047	-844	-845	-9080	22	20	138	1184	92072	1182	71093963
-501	117	4023	-841	-843	-9043	22	20	138	1185	92174	1183	71093967
-501	121	4027	-842	-844	-9040	27	29	119	1186	92228	1184	71093968
-503	127	4041	-843	-845	-9059	27	29	119	1187	92330	1185	71093968
-510	120	4034	-848	-843	-9069	24	26	124	1188	92384	1186	71093969
-492	133	4047	-843	-841	-9059	24	26	124	1189	92486	1187	71093969
-495	135	4032	-846	-841	-9047	37	25	127	1190	92540	1188	71093969
-494	144	4012	-845	-841	-9079	37	25	127	1191	92642	1189	71094003
-494	132	4057	-848	-838	-9073	42	26	126	1192	92696	1190	71094003
-494	134	4029	-846	-838	-9051	42	26	126	1193	92798	1191	71094006
-508	128	4050	-846	-846	-9072	41	25	127	1194	92852	1192	71094007
-489	107	4024	-851	-846	-9094	41	25	127	1195	92954	1193	71094009
-491	130	4034	-842	-847	-9053	42	26	114	1196	93008	1194	71094010
-500	132	4047	-841	-851	-9047	42	26	114	1197	93110	1195	71094011
-486	131	4048	-844	-843	-9077	41	23	121	1198	93164	1196	71094014
-497	124	4024	-843	-843	-9055	41	23	121	1199	93266	1197	71094018
-492	128	4024	-844	-843	-9066	51	25	115	1200	93320	1198	71094019
-504	126	4057	-845	-844	-9073	51	25	115	1201	93422	1199	71094049
-487	119	4051	-849	-836	-9087	49	21	119	1202	93476	1200	71094050
-496	115	4047	-851	-839	-9044	49	21	119	1203	93578	1201	71094053
-509	124	4043	-846	-847	-9058	47	27	109	1204	93632	1202	71094053
-503	130	4028	-847	-846	-9088	47	27	109	1205	93734	1203	71094057
-498	127	4015	-843	-845	-9068	53	21	103	1206	93788	1204	71094057
-510	134	4012	-844	-846	-9065	53	21	103	1207	93890	1205	71094059
-487	134	4038	-841	-849	-9067	57	17	105	1208	93944	1206	71094060
-496	138	4042	-841	-850	-9057	57	17	105	1209	94046	1207	71094060
-489	129	4016	-844	-846	-9034	53	17	111	1210	94100	1208	71094095
-498	126	4021	-847	-844	-9064	53	17	111	1211	94202	1209	71094096
-473	138	3987	-845	-846	-9060	54	18	108	1212	94256	1210	71094099
-494	137	4013	-846	-841	-9062	54	18	108	1213	94357	1211	71094099
-495	145	4029	-846	-841	-9052	55	21	101	1214	94411	1212	71094101
-481	132	4032	-843	-840	-9078	55	21	101	1215	94513	1213	71094105
-508	143	4025	-846	-842	-9076	59	11	105	1216	94567	1214	71094106
-475	135	4026	-846	-846	-9066	59	11	105	1217	94669	1215	71094109
-470	135	4040	-847	-850	-9049	55	15	103	1218	94723	1216	71094109
-509	122	4030	-842	-845	-9084	55	15	103	1219	94825	1217	71094118
-483	131	4015	-837	-849	-9068	64	12	104	1220	94878	1218	71094118
-489	122	4035	-842	-846	-9037	64	12	104	1221	94980	1219	71094121
-481	136	4037	-843	-845	-9063	56	10	104	1222	95034	1220	71094158
-466	142	4031	-844	-847	-9089	56	10	104	1223	95136	1221	71094160
-478	128	4016	-839	-842	-9063	57	9	109	1224	95190	1222	71094161
-490	148	4017	-843	-849	-9065	57	9	109	1225	95292	1223	71094162
-484	131	4025	-851	-844	-9082	55	9	99	1226	95346	1224	71094163
-496	135	4018	-846	-841	-9059	55	9	99	1227	95448	1225	71094163
-495	130	4023	-844	-847	-9034	55	13	101	1228	95502	1226	71094167
-505	125	4022	-844	-842	-9061	55	13	101	1229	95604	1227	71094167
-488	138	4031	-846	-842	-9073	52	8	102	1230	95658	1228	71094167
-488	141	4036	-841	-847	-9041	52	8	102	1231	95760	1229	71094176
-481	140	4032	-843	-849	-9059	55	-1	109	1232	95814	1230	71094176
-474	128	4002	-843	-847	-9069	55	-1	109	1233	95915	1231	71094180
-481	129	4024	-845	-846	-9065	55	-1	105	1234	95970	1232	71094210
-488	121	4022	-840	-843	-9039	55	-1	105	1235	96072	1233	71094211
-487	145	4014	-841	-842	-9091	57	-1	113	1236	96126	1234	71094216
-505	129	4048	-846	-842	-9061	57	-1	113	1237	96228	1235	71094216
-478	135	4029	-846	-847	-9057	51	-1	107	1238	96282	1236	71094217
-478	156	4019	-841	-843	-9054	51	-1	107	1239	96383	1237	71094218
-488	127	4062	-845	-843	-9075	53	3	107	1240	96438	1238	71094220
-478	130	4056	-847	-846	-9070	53	3	107	1241	96540	1239	71094222
-493	124	4030	-847	-848	-9065	51	-3	111	1242	96594	1240	71094223
-472	121	4012	-841	-850	-9076	51	-3	111	1243	96696	1241	71094258
-484	155	4005	-843	-851	-9083	55	-1	123	1244	96750	1242	71094258
-470	134	4063	-844	-846	-9035	55	-1	123	1245	96852	1243	71094261
-488	140	4038	-841	-845	-9091	56	0	116	1246	96906	1244	71094262
-467	140	4008	-844	-844	-9076	56	0	116	1247	97008	1245	71094264
-482	144	4051	-840	-844	-9067	56	6	116	1248	97062	1246	71094265
-488	125	4032	-847	-845	-9055	56	6	116	1249	97164	1247	71094266
-495	123	4027	-845	-842	-9092	49	3	117	1250	97218	1248	71094269
-484	155	4020	-841	-840	-9069	49	3	117	1251	97320	1249	71094269
-484	141	4026	-844	-846	-9066	61	-11	121	1252	97374	1250	71094272
-490	141	4046	-848	-849	-9090	61	-11	121	1253	97476	1251	71094307
-464	135	4024	-841	-852	-9083	58	-8	124	1254	97530	1252	71094307
-464	138	4013	-840	-849	-9068	58	-8	124	1255	97632	1253	71094309
-480	145	4011	-844	-841	-9062	59	-3	121	1256	97686	1254	71094309
-457	139	4036	-850	-847	-9082	59	-3	121	1257	97787	1255	71094313
-477	132	4015	-843	-845	-9065	61	-9	123	1258	97841	1256	71094313
-473	156	4018	-840	-844	-9053	61	-9	123	1259	97943	1257	71094315
-469	153	4055	-844	-845	-9061	59	-11	119	1260	97997	1258	71094316
-479	148	4039	-846	-846	-9068	59	-11	119	1261	98098	1259	71094317
-469	155	4046	-843	-845	-9066	65	-17	129	1262	98153	1260	71094353
-467	149	4024	-843	-845	-9050	65	-17	129	1263	98255	1261	71094358
-489	151	4047	-843	-843	-9067	63	-13	135	1264	98309	1262	71094367
-498	142	4015	-845	-846	-9076	63	-13	135	1265	98411	1263	71094368
-494	141	4034	-844	-844	-9056	61	-9	133	1266	98465	1264	71094369
-481	145	4030	-841	-844	-9074	61	-9	133	1267	98567	1265	71094369
-504	156	4011	-842	-843	-9075	64	-8	132	1268	98621	1266	71094370
-472	158	4005	-843	-847	-9060	64	-8	132	1269	98723	1267	71094370
-478	136	4044	-848	-842	-9051	61	-19	129	1270	98777	1268	71094370
-501	170	4035	-843	-835	-9076	61	-19	129	1271	98879	1269	71094370
-478	152	4030	-844	-847	-9060	66	-20	142	1272	98933	1270	71094398
-477	148	4026	-846	-849	-9043	66	-20	142	1273	99035	1271	71094398
-503	149	4044	-845	-843	-9073	64	-22	140	1274	99089	1272	71094401
-473	157	4023	-842	-847	-9096	64	-22	140	1275	99191	1273	71094403
-480	156	4040	-844	-847	-9068	60	-24	138	1276	99245	1274	71094405
-475	174	4044	-844	-841	-9050	60	-24	138	1277	99347	1275	71094406
-477	154	4044	-842	-852	-9081	62	-20	140	1278	99401	1276	71094408
-500	158	4028	-841	-849	-9057	62	-20	140	1279	99503	1277	71094410
-480	153	4042	-844	-845	-9065	58	-28	146	1280	99557	1278	71094411
-484	145	4039	-847	-843	-9075	58	-28	146	1281	99659	1279	71094445
-486	165	4008	-840	-840	-9064	71	-31	149	1282	99713	1280	71094446
-469	165	4033	-844	-844	-9058	71	-31	149	1283	99815	1281	71094449
-461	150	4057	-849	-842	-9034	68	-26	148	1284	99869	1282	71094449
-474	159	4016	-842	-842	-9083	68	-26	148	1285	99971	1283	71094452
-473	167	4051	-850	-847	-9075	64	-26	148	1286	100024	1284	71094453
-499	162	4037	-841	-844	-9041	64	-26	148	1287	100126	1285	71094453
-469	148	4040	-845	-842	-9040	67	-33	141	1288	100180	1286	71094457
-471	150	4038	-843	-847	-9053	67	-33	141	1289	100282	1287	71094457
-501	150	4031	-841	-843	-9047	65	-37	153	1290	100336	1288	71094459
-469	162	4032	-844	-847	-9048	65	-37	153	1291	100438	1289	71094492
-466	154	3997	-844	-837	-9082	63	-45	153	1292	100492	1290	71094492
-469	169	4035	-837	-847	-9065	63	-45	153	1293	100594	1291	71094495
-489	157	4042	-845	-842	-9043	57	-43	151	1294	100648	1292	71094496
-485	178	4026	-847	-834	-9056	57	-43	151	1295	100750	1293	71094499
-482	172	4028	-847	-844	-9068	56	-42	150	1296	100804	1294	71094499
-496	152	4052	-845	-847	-9062	56	-42	150	1297	100905	1295	71094502
-480	162	4036	-850	-843	-9043	53	-47	151	1298	100960	1296	71094504
-505	152	4016	-847	-845	-9082	53	-47	151	1299	101061	1297	71094505
-506	162	4015	-844	-848	-9077	63	-51	161	1300	101115	1298	71094539
-481	150	4039	-842	-845	-9066	63	-51	161	1301	101216	1299	71094540
-504	155	4030	-846	-842	-9078	61	-51	157	1302	101270	1300	71094543
-496	175	4032	-843	-840	-9080	61	-51	157	1303	101372	1301	71094543
-480	160	4019	-846	-844	-9060	50	-52	152	1304	101426	1302	71094546
-506	166	4017	-847	-840	-9063	50	-52	152	1305	101528	1303	71094549
-480	167	4029	-842	-847	-9070	53	-57	155	1306	101582	1304	71094551
-495	180	4050	-843	-842	-9057	53	-57	155	1307	101684	1305	71094551
-518	164	4033	-847	-836	-9061	54	-62	148	1308	101738	1306	71094551
-485	174	4033	-844	-847	-9069	54	-62	148	1309	101839	1307	71094585
-478	176	4016	-841	-843	-9069	54	-58	164	1310	101894	1308	71094585
-492	166	4037	-847	-842	-9043	54	-58	164	1311	101995	1309	71094588
-500	158	4044	-848	-847	-9048	49	-59	161	1312	102049	1310	71094589
-488	156	4023	-843	-847	-9078	49	-59	161	1313	102151	1311	71094590
-479	180	4025	-842	-846	-9053	42	-64	158	1314	102205	1312	71094593
-488	162	4008	-845	-847	-9041	42	-64	158	1315	102307	1313	71094593
-480	172	4021	-844	-846	-9066	43	-59	159	1316	102361	1314	71094601
-501	171	4028	-845	-845	-9089	43	-59	159	1317	102463	1315	71094603
-488	167	4045	-846	-844	-9079	41	-61	157	1318	102517	1316	71094604
-494	153	4054	-845	-841	-9068	41	-61	157	1319	102619	1317	71094632
-489	168	4055	-845	-849	-9076	50	-74	164	1320	102673	1318	71094632
-504	167	4032	-847	-848	-9100	50	-74	164	1321	102775	1319	71094635
-493	165	4026	-846	-845	-9070	42	-70	160	1322	102829	1320	71094636
-507	175	4048	-842	-851	-9073	42	-70	160	1323	102931	1321	71094638
-500	167	4006	-843	-844	-9073	38	-68	156	1324	102985	1322	71094639
-498	179	4033	-849	-843	-9063	38	-68	156	1325	103087	1323	71094639
-513	155	4019	-848	-844	-9070	37	-67	151	1326	103141	1324	71094643
-494	152	4052	-845	-847	-9074	37	-67	151	1327	103243	1325	71094643
-508	158	4037	-848	-841	-9083	32	-70	156	1328	103297	1326	71094678
-508	156	3997	-847	-845	-9068	32	-70	156	1329	103399	1327	71094678
-508	162	4049	-846	-852	-9065	37	-79	163	1330	103453	1328	71094680
-515	174	4043	-845	-847	-9085	37	-79	163	1331	103555	1329	71094681
-500	164	4030	-844	-847	-9062	25	-69	157	1332	103609	1330	71094682
-496	175	4039	-846	-845	-9055	25	-69	157	1333	103711	1331	71094686
-504	158	4038	-847	-847	-9067	25	-71	155	1334	103765	1332	71094687
-488	157	4011	-848	-847	-9089	25	-71	155	1335	103867	1333	71094689
-503	144	4022	-849	-850	-9064	24	-72	160	1336	103921	1334	71094689
-512	156	4025	-844	-850	-9057	24	-72	160	1337	104023	1335	71094689
-499	185	4012	-843	-849	-9080	18	-76	160	1338	104077	1336	71094725
-507	182	4028	-847	-846	-9070	18	-76	160	1339	104179	1337	71094726
-517	159	4036	-847	-846	-9083	17	-73	155	1340	104233	1338	71094729
-501	159	4029	-847	-843	-9088	17	-73	155	1341	104335	1339	71094729
-520	173	4025	-849	-838	-9068	19	-69	145	1342	104389	1340	71094731
-514	158	4031	-850	-844	-9048	19	-69	145	1343	104491	1341	71094733
-510	161	4060	-846	-848	-9051	12	-72	150	1344	104545	1342	71094733
-518	173	4037	-843	-846	-9087	12	-72	150	1345	104647	1343	71094736
-523	177	4014	-842	-849	-9107	19	-79	155	1346	104701	1344	71094737
-530	167	4054	-850	-848	-9084	19	-79	155	1347	104803	1345	71094771
-539	164	4051	-845	-847	-9085	7	-77	151	1348	104857	1346	71094771
-523	172	4029	-845	-850	-9071	7	-77	151	1349	104959	1347	71094774
-510	180	4044	-849	-846	-9063	10	-74	150	1350	105013	1348	71094775
-507	146	4024	-851	-849	-9067	10	-74	150	1351	105115	1349	71094775
-523	161	4040	-848	-848	-9077	2	-74	142	1352	105169	1350	71094779
-518	165	4025	-840	-842	-9045	2	-74	142	1353	105271	1351	71094779
-517	155	4021	-850	-845	-9072	4	-68	146	1354	105325	1352	71094782
-529	152	4037	-847	-842	-9088	4	-68	146	1355	105427	1353	71094783
-543	157	4047	-847	-845	-9075	7	-75	153	1356	105481	1354	71094786
-530	156	4030	-846	-848	-9084	7	-75	153	1357	105583	1355	71094819
-514	153	4030	-848	-847	-9071	-4	-76	150	1358	105637	1356	71094820
-523	155	4047	-848	-847	-9095	-4	-76	150	1359	105739	1357	71094823
-514	151	4060	-843	-846	-9077	-7	-73	145	1360	105793	1358	71094823
-505	170	4029	-844	-853	-9063	-7	-73	145	1361	105895	1359	71094852
-524	159	4021	-843	-846	-9088	-9	-73	141	1362	105949	1360	71094852
-516	159	4037	-846	-843	-9083	-9	-73	141	1363	106051	1361	71094852
-517	164	4013	-848	-844	-9083	-15	-67	141	1364	106105	1362	71094855
-504	170	4026	-845	-843	-9063	-15	-67	141	1365	106207	1363	71094856
-528	164	4020	-844	-840	-9049	-13	-75	145	1366	106261	1364	71094859
-513	142	4012	-847	-845	-9059	-13	-75	145	1367	106363	1365	71094859
-523	154	4035	-843	-846	-9085	-24	-60	138	1368	106417	1366	71094862
-523	165	4021	-842	-847	-9071	-24	-60	138	1369	106519	1367	71094863
-516	175	4057	-844	-844	-9082	-21	-61	141	1370	106573	1368	71094863
-516	152	4021	-845	-848	-9074	-21	-61	141	1371	106675	1369	71094866
-510	164	4013	-846	-848	-9073	-24	-62	138	1372	106729	1370	71094867
-514	172	4034	-845	-844	-9085	-24	-62	138	1373	106831	1371	71094877
-515	144	4047	-844	-850	-9073	-22	-66	148	1374	106885	1372	71094877
-540	142	4025	-847	-850	-9072	-22	-66	148	1375	106987	1373	71094880
-512	140	4021	-842	-840	-9070	-27	-59	147	1376	107041	1374	71094913
-516	142	4015	-840	-843	-9090	-27	-59	147	1377	107143	1375	71094913
-529	159	4021	-847	-843	-9076	-40	-56	142	1378	107197	1376	71094916
-523	154	4033	-848	-842	-9083	-40	-56	142	1379	107299	1377	71094917
-508	152	4023	-847	-848	-9072	-38	-54	144	1380	107353	1378	71094920
-511	134	4044	-849	-843	-9060	-38	-54	144	1381	107455	1379	71094921
-509	139	4048	-849	-845	-9069	-43	-47	139	1382	107509	1380	71094923
-517	148	4030	-846	-846	-9067	-43	-47	139	1383	107611	1381	71094924
-507	149	4029	-839	-847	-9079	-47	-51	147	1384	107665	1382	71094925
-524	162	4013	-841	-848	-9062	-47	-51	147	1385	107767	1383	71094959
-526	151	4046	-846	-850	-9072	-46	-50	142	1386	107821	1384	71094959
-509	142	4045	-846	-844	-9094	-46	-50	142	1387	107923	1385	71094961
-512	157	4017	-846	-842	-9075	-51	-33	151	1388	107977	1386	71094963
-506	133	4023	-851	-844	-9086	-51	-33	151	1389	108079	1387	71094963
-508	150	4030	-846	-843	-9086	-47	-41	151	1390	108133	1388	71094967
-524	158	4048	-844	-846	-9054	-47	-41	151	1391	108235	1389	71094967
-506	154	4025	-838	-845	-9078	-48	-30	144	1392	108289	1390	71094970
-521	140	4015	-841	-846	-9090	-48	-30	144	1393	108391	1391	71094970
-519	164	4038	-846	-842	-9062	-51	-33	157	1394	108445	1392	71094973
-535	158	4044	-845	-844	-9051	-51	-33	157	1395	108547	1393	71095006
-522	139	4051	-846	-843	-9048	-50	-32	162	1396	108601	1394	71095006
-510	136	4017	-846	-842	-9068	-50	-32	162	1397	108703	1395	71095009
-528	135	4039	-845	-845	-9071	-54	-18	164	1398	108757	1396	71095010
-514	130	4032	-841	-845	-9042	-54	-18	164	1399	108859	1397	71095013
-516	148	4039	-842	-841	-9057	-37	-19	167	1400	108913	1398	71095014
-514	137	4048	-846	-846	-9055	-37	-19	167	1401	109015	1399	71095019
-505	132	4041	-845	-846	-9051	-51	-1	157	1402	109069	1400	71095021
-514	148	4016	-840	-844	-9068	-51	-1	157	1403	109171	1401	71095022
-512	148	4020	-849	-846	-9078	-43	-23	171	1404	109225	1402	71095051
-508	129	4031	-850	-840	-9084	-43	-23	171	1405	109327	1403	71095051
-511	128	4032	-842	-842	-9044	-37	-9	175	1406	109381	1404	71095055
-531	138	4052	-842	-846	-9075	-37	-9	175	1407	109483	1405	71095056
-505	146	4040	-846	-844	-9078	-38	0	158	1408	109537	1406	71095056
-523	130	4020	-848	-845	-9054	-38	0	158	1409	109639	1407	71095059
-518	152	4034	-841	-843	-9063	-28	-4	166	1410	109693	1408	71095059
-502	141	4009	-839	-851	-9077	-28	-4	166	1411	109795	1409	71095062
-497	128	4035	-847	-848	-9061	-22	6	164	1412	109849	1410	71095063
-514	117	4034	-850	-845	-9046	-22	6	164	1413	109951	1411	71095066
-521	157	4021	-844	-847	-9064	-25	-17	177	1414	110005	1412	71095099
-514	140	4037	-844	-838	-9072	-25	-17	177	1415	110107	1413	71095099
-506	139	4037	-847	-842	-9061	-9	15	163	1416	110161	1414	71095103
-516	142	4036	-846	-843	-9068	-9	15	163	1417	110263	1415	71095103
-515	136	4018	-845	-839	-9075	-17	1	149	1418	110317	1416	71095106
-515	149	4027	-844	-839	-9078	-17	1	149	1419	110419	1417	71095106
-523	137	4027	-849	-845	-9051	-5	3	163	1420	110473	1418	71095109
-528	135	4035	-844	-844	-9078	-5	3	163	1421	110575	1419	71095110
-540	134	4039	-845	-848	-9080	3	5	155	1422	110629	1420	71095110
-506	133	4027	-842	-845	-9055	3	5	155	1423	110731	1421	71095146
-518	136	4026	-840	-846	-9074	-5	-3	157	1424	110785	1422	71095146
-519	142	4029	-843	-849	-9093	-5	-3	157	1425	110887	1423	71095149
-507	127	4054	-845	-840	-9075	11	19	143	1426	110941	1424	71095149
-512	129	4036	-847	-843	-9097	11	19	143	1427	111043	1425	71095150
-481	122	4058	-848	-847	-9085	-1	7	147	1428	111097	1426	71095153
-507	123	4044	-847	-846	-9083	-1	7	147	1429	111199	1427	71095153
-509	126	4020	-841	-844	-9048	3	11	147	1430	111253	1428	71095156
-512	134	4018	-842	-842	-9066	3	11	147	1431	111355	1429	71095157
-509	139	4022	-843	-842	-9047	16	10	142	1432	111409	1430	71095160
-518	114	4045	-845	-838	-9069	16	10	142	1433	111511	1431	71095193
-489	125	4058	-841	-846	-9052	3	7	143	1434	111565	1432	71095193
-514	138	4057	-841	-847	-9070	3	7	143	1435	111666	1433	71095196
-509	131	4031	-846	-845	-9050	21	21	131	1436	111720	1434	71095197
-504	133	4054	-844	-843	-9048	21	21	131	1437	111822	1435	71095199
-510	130	4023	-839	-843	-9068	12	18	140	1438	111876	1436	71095200
-498	142	4045	-844	-845	-9043	12	18	140	1439	111978	1437	71095201
-501	128	4032	-842	-848	-9063	24	24	136	1440	112032	1438	71095205
-515	126	4028	-843	-842	-9053	24	24	136	1441	112134	1439	71095207
-485	148	4038	-841	-848	-9074	15	23	133	1442	112188	1440	71095209
-485	136	4035	-844	-843	-9056	15	23	133	1443	112290	1441	71095241
-515	134	4038	-846	-840	-9058	18	18	134	1444	112344	1442	71095241
-504	122	4009	-841	-850	-9067	18	18	134	1445	112446	1443	71095245
-503	112	4038	-842	-841	-9074	23	25	131	1446	112499	1444	71095245
-513	133	4025	-842	-841	-9063	23	25	131	1447	112601	1445	71095249
-499	133	4045	-849	-848	-9061	18	22	132	1448	112655	1446	71095249
-525	143	4039	-842	-847	-9078	18	22	132	1449	112757	1447	71095249
-498	124	4036	-845	-841	-9078	31	23	121	1450	112811	1448	71095254
-490	112	4011	-844	-842	-9062	31	23	121	1451	112913	1449	71095254
-507	117	4022	-843	-845	-9064	37	21	131	1452	112967	1450	71095289
-492	130	4004	-843	-843	-9080	37	21	131	1453	113069	1451	71095289
-508	141	4025	-844	-839	-9030	31	27	125	1454	113123	1452	71095291
-507	120	4052	-844	-842	-9061	31	27	125	1455	113225	1453	71095293
-500	123	4039	-845	-842	-9080	39	25	125	1456	113278	1454	71095293
-489	126	4029	-846	-837	-9068	39	25	125	1457	113380	1455	71095296
-504	141	4034	-847	-839	-9021	42	24	120	1458	113434	1456	71095297
-497	124	4026	-844	-842	-9056	42	24	120	1459	113536	1457	71095299
-475	114	4021	-842	-842	-9073	49	23	111	1460	113590	1458	71095304
-496	108	4039	-841	-846	-9053	49	23	111	1461	113692	1459	71095304
-495	123	4030	-844	-847	-9066	48	26	118	1462	113746	1460	71095339
-500	132	4059	-840	-845	-9094	48	26	118	1463	113848	1461	71095340
-487	120	4041	-846	-843	-9061	50	24	118	1464	113902	1462	71095342
-489	137	4028	-846	-848	-9079	50	24	118	1465	114004	1463	71095343
-482	135	4044	-844	-846	-9057	49	17	109	1466	114057	1464	71095350
-483	135	4034	-848	-841	-9077	49	17	109	1467	114159	1465	71095352
-491	114	4051	-848	-843	-9073	51	23	107	1468	114213	1466	71095353
-473	115	4029	-844	-845	-9073	51	23	107	1469	114315	1467	71095354
-497	133	4022	-842	-844	-9073	56	22	104	1470	114369	1468	71095358
-491	119	4048	-846	-843	-9079	56	22	104	1471	114470	1469	71095366
-499	125	4037	-847	-845	-9068	55	17	113	1472	114524	1470	71095387
-499	138	4029	-841	-850	-9062	55	17	113	1473	114626	1471	71095387
-503	116	4022	-844	-845	-9073	57	19	113	1474	114680	1472	71095390
-507	134	4024	-848	-845	-9045	57	19	113	1475	114782	1473	71095390
-475	139	4022	-844	-849	-9067	52	18	98	1476	114836	1474	71095391
-481	163	4019	-842	-848	-9087	52	18	98	1477	114938	1475	71095394
-494	133	4012	-844	-842	-9072	57	17	103	1478	114992	1476	71095394
-491	125	4022	-845	-843	-9065	57	17	103	1479	115094	1477	71095398
-497	135	4040	-848	-841	-9076	58	14	102	1480	115147	1478	71095398
-493	128	4027	-844	-843	-9068	58	14	102	1481	115248	1479	71095402
-504	120	4035	-849	-844	-9034	56	16	106	1482	115302	1480	71095434
-481	116	4059	-848	-847	-9039	56	16	106	1483	115404	1481	71095435
-479	137	4041	-842	-843	-9051	57	9	103	1484	115458	1482	71095438
-482	127	4026	-842	-842	-9048	57	9	103	1485	115560	1483	71095438
-494	123	4033	-842	-847	-9050	60	16	100	1486	115613	1484	71095440
-487	135	4014	-843	-842	-9078	60	16	100	1487	115715	1485	71095442
-489	122	4011	-843	-845	-9077	54	12	100	1488	115769	1486	71095442
-490	154	4029	-843	-845	-9046	54	12	100	1489	115871	1487	71095447
-495	143	4035	-846	-849	-9061	61	3	103	1490	115925	1488	71095447
-473	126	4009	-847	-843	-9071	61	3	103	1491	116027	1489	71095450
-480	122	4037	-844	-845	-9066	57	3	103	1492	116081	1490	71095490
-478	129	4031	-841	-850	-9049	57	3	103	1493	116183	1491	71095491
-492	140	4050	-841	-843	-9100	57	-1	105	1494	116237	1492	71095494
-470	149	4036	-843	-844	-9086	57	-1	105	1495	116339	1493	71095497
-482	135	4027	-844	-845	-9052	54	6	106	1496	116393	1494	71095498
-509	140	4037	-844	-848	-9051	54	6	106	1497	116495	1495	71095498
-493	127	4024	-841	-847	-9073	53	3	103	1498	116549	1496	71095499
-497	128	4021	-844	-844	-9084	53	3	103	1499	116651	1497	71095501
-485	116	4036	-841	-846	-9071	56	2	108	1500	116705	1498	71095502
-464	135	4019	-841	-839	-9098	56	2	108	1501	116807	1499	71095506
-490	144	4042	-844	-840	-9097	52	0	112	1502	116861	1500	71095507
-488	123	4029	-847	-848	-9054	52	0	112	1503	116963	1501	71095510
-490	133	4006	-846	-843	-9070	54	-4	118	1504	117017	1502	71095544
-473	136	4032	-843	-845	-9085	54	-4	118	1505	117119	1503	71095548
-488	126	4024	-849	-848	-9069	52	-4	122	1506	117173	1504	71095548
-485	138	4060	-847	-843	-9052	52	-4	122	1507	117275	1505	71095549
-491	129	4037	-839	-843	-9091	56	0	110	1508	117329	1506	71095550
-485	145	4018	-837	-842	-9089	56	0	110	1509	117431	1507	71095551
-478	136	4054	-843	-841	-9076	60	-2	112	1510	117485	1508	71095553
-471	143	4006	-842	-844	-9064	60	-2	112	1511	117587	1509	71095557
-482	158	4036	-836	-844	-9068	57	-5	119	1512	117641	1510	71095557
-472	130	4011	-842	-847	-9075	57	-5	119	1513	117743	1511	71095559
-460	136	4019	-845	-843	-9049	58	-2	126	1514	117797	1512	71095593
-502	133	4013	-842	-838	-9091	58	-2	126	1515	117899	1513	71095593
-494	137	4013	-848	-845	-9070	57	-3	127	1516	117953	1514	71095596
-474	164	4043	-850	-844	-9063	57	-3	127	1517	118055	1515	71095597
-472	147	4039	-843	-841	-9062	57	-3	119	1518	118109	1516	71095599
-495	158	4021	-843	-849	-9066	57	-3	119	1519	118211	1517	71095600
-481	138	4021	-843	-846	-9066	58	-4	124	1520	118265	1518	71095601
-492	140	4031	-844	-846	-9039	58	-4	124	1521	118367	1519	71095604
-477	152	4033	-841	-845	-9070	64	-14	130	1522	118421	1520	71095607
-479	162	4023	-842	-847	-9074	64	-14	130	1523	118523	1521	71095608
-491	159	4031	-845	-847	-9062	57	-11	127	1524	118577	1522	71095642
-485	151	4026	-840	-843	-9060	57	-11	127	1525	118679	1523	71095642
-493	158	4047	-844	-842	-9067	61	-9	133	1526	118733	1524	71095645
-487	135	4028	-851	-845	-9064	61	-9	133	1527	118835	1525	71095646
-479	132	4030	-843	-842	-9068	57	-17	127	1528	118889	1526	71095649
-464	166	4022	-840	-848	-9075	57	-17	127	1529	118991	1527	71095649
-485	141	4036	-849	-850	-9062	67	-15	135	1530	119045	1528	71095650
-482	138	4037	-846	-846	-9052	67	-15	135	1531	119147	1529	71095653
-490	159	4052	-840	-843	-9056	69	-17	133	1532	119201	1530	71095653
-467	156	4042	-844	-843	-9087	69	-17	133	1533	119303	1531	71095689
-479	126	4018	-849	-843	-9077	64	-16	140	1534	119357	1532	71095689
-481	159	4025	-845	-843	-9067	64	-16	140	1535	119459	1533	71095691
-489	153	4028	-837	-840	-9093	66	-20	144	1536	119513	1534	71095693
-475	144	4016	-849	-847	-9080	66	-20	144	1537	119615	1535	71095693
-485	136	4021	-848	-841	-9053	64	-18	134	1538	119669	1536	71095697
-493	159	4023	-842	-844	-9068	64	-18	134	1539	119771	1537	71095698
-464	171	4024	-839	-847	-9053	64	-22	148	1540	119825	1538	71095699
-499	154	4020	-842	-844	-9052	64	-22	148	1541	119927	1539	71095702
-491	144	4021	-846	-844	-9038	64	-22	142	1542	119981	1540	71095702
-478	187	4023	-843	-850	-9062	64	-22	142	1543	120083	1541	71095738
-483	166	4030	-846	-845	-9075	62	-32	150	1544	120137	1542	71095739
-479	131	4039	-847	-844	-9072	62	-32	150	1545	120239	1543	71095740
-478	159	4023	-841	-846	-9047	62	-34	150	1546	120293	1544	71095742
-481	158	4040	-841	-845	-9073	62	-34	150	1547	120395	1545	71095742
-488	167	4005	-843	-841	-9067	64	-30	150	1548	120449	1546	71095747
-475	184	4025	-848	-841	-9034	64	-30	150	1549	120551	1547	71095748
-470	175	4016	-843	-843	-9057	64	-38	146	1550	120605	1548	71095749
-491	163	4018	-844	-844	-9070	64	-38	146	1551	120707	1549	71095753
-479	150	4031	-843	-841	-9033	63	-41	149	1552	120761	1550	71095754
-472	157	4066	-842	-847	-9064	63	-41	149	1553	120863	1551	71095763
-473	160	4037	-843	-840	-9065	62	-44	158	1554	120917	1552	71095763
-481	166	4033	-844	-843	-9045	62	-44	158	1555	121019	1553	71095766
-486	169	4028	-842	-843	-9033	63	-47	155	1556	121073	1554	71095799
-471	162	4024	-843	-848	-9078	63	-47	155	1557	121175	1555	71095800
-481	169	4026	-849	-844	-9060	61	-43	153	1558	121229	1556	71095803
-490	139	4038	-845	-838	-9054	61	-43	153	1559	121331	1557	71095803
-493	155	4025	-844	-843	-9041	55	-43	157	1560	121385	1558	71095806
-491	154	4024	-847	-844	-9103	55	-43	157	1561	121487	1559	71095807
-487	158	4039	-844	-838	-9056	54	-46	154	1562	121541	1560	71095807
-488	176	4031	-842	-847	-9061	54	-46	154	1563	121643	1561	71095810
-485	166	4033	-845	-844	-9064	63	-47	151	1564	121696	1562	71095811
-497	170	4031	-847	-841	-9081	63	-47	151	1565	121798	1563	71095845
-488	155	4034	-844	-844	-9045	54	-56	160	1566	121852	1564	71095846
-488	173	4036	-846	-842	-9073	54	-56	160	1567	121954	1565	71095846
-496	158	4060	-845	-843	-9081	50	-52	152	1568	122008	1566	71095849
-498	155	4012	-848	-845	-9075	50	-52	152	1569	122110	1567	71095849
-511	164	4042	-846	-847	-9061	47	-57	155	1570	122164	1568	71095853
-485	164	4021	-842	-847	-9068	47	-57	155	1571	122266	1569	71095853
-501	179	4036	-845	-842	-9095	52	-58	152	1572	122320	1570	71095855
-500	179	4003	-846	-844	-9067	52	-58	152	1573	122422	1571	71095860
-505	157	4026	-845	-846	-9071	51	-67	157	1574	122476	1572	71095861
-499	156	4011	-844	-841	-9069	51	-67	157	1575	122578	1573	71095897
-491	193	3997	-842	-845	-9060	57	-65	163	1576	122631	1574	71095897
-485	166	4008	-844	-844	-9053	57	-65	163	1577	122733	1575	71095898
-515	155	4034	-844	-847	-9074	45	-67	159	1578	122787	1576	71095899
-503	176	4025	-841	-844	-9093	45	-67	159	1579	122889	1577	71095900
-508	166	4017	-845	-846	-9028	45	-61	161	1580	122943	1578	71095902
-512	143	4024	-845	-848	-9049	45	-61	161	1581	123045	1579	71095903
-491	161	4048	-845	-845	-9067	45	-57	155	1582	123099	1580	71095907
-493	159	4038	-843	-842	-9054	45	-57	155	1583	123201	1581	71095910
-499	165	4041	-844	-848	-9081	39	-69	165	1584	123255	1582	71095911
-492	158	4043	-846	-843	-9086	39	-69	165	1585	123356	1583	71095920
-505	157	4016	-841	-843	-9097	45	-65	161	1586	123410	1584	71095920
-496	158	4014	-842	-848	-9083	45	-65	161	1587	123512	1585	71095932
-507	162	4042	-847	-851	-9099	39	-69	161	1588	123566	1586	71095932
-516	169	4011	-847	-847	-9108	39	-69	161	1589	123667	1587	71095932
-498	163	4032	-842	-842	-9050	38	-72	162	1590	123721	1588	71095946
-474	183	4027	-841	-839	-9063	38	-72	162	1591	123823	1589	71095949
-495	158	4070	-846	-847	-9094	34	-70	156	1592	123877	1590	71095956
-489	164	4028	-847	-843	-9091	34	-70	156	1593	123979	1591	71095957
-504	162	4001	-841	-846	-9077	30	-72	160	1594	124033	1592	71095959
-498	178	4029	-844	-849	-9079	30	-72	160	1595	124135	1593	71095992
-513	162	4030	-849	-843	-9104	31	-73	163	1596	124189	1594	71095992
-475	161	4015	-844	-846	-9077	31	-73	163	1597	124291	1595	71095995
-499	162	4036	-843	-848	-9064	29	-75	155	1598	124345	1596	71095996
-507	159	4044	-846	-843	-9079	29	-75	155	1599	124446	1597	71095998
-487	160	4051	-848	-843	-9072	20	-72	156	1600	124500	1598	71095999
-496	161	4025	-848	-848	-9079	20	-72	156	1601	124602	1599	71096000
-514	174	4031	-845	-846	-9087	20	-74	154	1602	124656	1600	71096006
-515	144	4027	-845	-845	-9077	20	-74	154	1603	124757	1601	71096007
-517	169	4039	-846	-845	-9062	22	-74	160	1604	124811	1602	71096012
-523	169	4035	-845	-846	-9079	22	-74	160	1605	124913	1603	71096040
-513	172	4023	-844	-844	-9097	16	-74	152	1606	124967	1604	71096040
-512	170	4021	-849	-846	-9088	16	-74	152	1607	125069	1605	71096044
-505	159	4033	-847	-847	-9069	13	-75	149	1608	125123	1606	71096044
-519	168	4023	-843	-846	-9089	13	-75	149	1609	125225	1607	71096046
-516	189	4026	-848	-853	-9094	11	-73	147	1610	125279	1608	71096047
-511	169	4025	-849	-853	-9048	11	-73	147	1611	125381	1609	71096048
-517	171	4025	-846	-847	-9058	8	-72	148	1612	125435	1610	71096052
-508	146	4036	-845	-844	-9073	8	-72	148	1613	125536	1611	71096053
-527	155	4053	-849	-844	-9090	3	-71	151	1614	125590	1612	71096088
-524	149	4034	-847	-847	-9072	3	-71	151	1615	125692	1613	71096088
-505	144	4035	-846	-841	-9069	6	-74	150	1616	125746	1614	71096090
-514	159	4006	-842	-841	-9094	6	-74	150	1617	125848	1615	71096091
-515	151	4023	-842	-849	-9067	2	-70	144	1618	125901	1616	71096092
-529	161	4056	-844	-847	-9072	2	-70	144	1619	126003	1617	71096098
-528	178	4046	-844	-846	-9063	-4	-72	148	1620	126057	1618	71096099
-501	167	4033	-846	-849	-9060	-4	-72	148	1621	126159	1619	71096100
-495	163	4035	-849	-849	-9048	-6	-66	144	1622	126213	1620	71096103
-511	162	4027	-848	-841	-9074	-6	-66	144	1623	126314	1621	71096103
-519	161	4030	-845	-849	-9086	-5	-77	147	1624	126368	1622	71096131
-517	159	4000	-842	-849	-9056	-5	-77	147	1625	126470	1623	71096132
-518	173	4040	-846	-844	-9077	-13	-67	145	1626	126523	1624	71096134
-520	158	4036	-849	-843	-9059	-13	-67	145	1627	126625	1625	71096135
-507	156	4059	-845	-846	-9083	-23	-67	139	1628	126679	1626	71096136
-511	170	4041	-844	-845	-9080	-23	-67	139	1629	126780	1627	71096139
-537	162	4039	-845	-843	-9076	-15	-67	139	1630	126834	1628	71096140
-510	149	4022	-847	-845	-9115	-15	-67	139	1631	126936	1629	71096142
-520	166	4038	-843	-843	-9076	-22	-64	146	1632	126990	1630	71096175
-509	170	4020	-840	-843	-9061	-22	-64	146	1633	127092	1631	71096176
-513	165	4025	-844	-851	-9075	-20	-66	148	1634	127146	1632	71096179
-518	162	4026	-848	-850	-9073	-20	-66	148	1635	127248	1633	71096179
-508	150	4052	-847	-848	-9060	-20	-56	136	1636	127302	1634	71096181
-508	149	4032	-848	-844	-9083	-20	-56	136	1637	127404	1635	71096183
-521	143	4025	-850	-844	-9089	-36	-58	142	1638	127458	1636	71096183
-523	145	4033	-845	-844	-9072	-36	-58	142	1639	127560	1637	71096186
-518	153	4033	-842	-844	-9062	-32	-56	142	1640	127614	1638	71096187
-533	151	4013	-839	-843	-9071	-32	-56	142	1641	127716	1639	71096189
-505	149	4020	-839	-845	-9064	-35	-51	143	1642	127770	1640	71096198
-519	164	4046	-845	-847	-9079	-35	-51	143	1643	127872	1641	71096199
-521	140	4026	-843	-838	-9064	-43	-55	147	1644	127926	1642	71096234
-514	152	4042	-846	-845	-9078	-43	-55	147	1645	128027	1643	71096237
-528	160	4063	-845	-844	-9072	-44	-46	144	1646	128082	1644	71096237
-508	149	4067	-846	-847	-9042	-44	-46	144	1647	128183	1645	71096238
-535	130	4042	-845	-850	-9069	-49	-41	149	1648	128237	1646	71096240
-522	145	4045	-847	-847	-9052	-49	-41	149	1649	128339	1647	71096241
-522	136	4033	-844	-844	-9049	-44	-42	150	1650	128393	1648	71096242
-528	156	3999	-848	-844	-9065	-44	-42	150	1651	128495	1649	71096246
-500	145	4027	-847	-847	-9075	-54	-28	146	1652	128549	1650	71096249
-526	136	4052	-841	-837	-9064	-54	-28	146	1653	128651	1651	71096250
-534	143	4050	-846	-841	-9069	-44	-44	154	1654	128705	1652	71096289
-518	144	4036	-843	-850	-9071	-44	-44	154	1655	128807	1653	71096290
-532	161	4022	-841	-843	-9055	-49	-31	153	1656	128861	1654	71096290
-511	157	4018	-845	-844	-9040	-49	-31	153	1657	128962	1655	71096291
-526	144	4018	-846	-848	-9078	-52	-28	158	1658	129017	1656	71096292
-535	148	4014	-847	-847	-9090	-52	-28	158	1659	129119	1657	71096293
-505	141	4047	-846	-843	-9060	-51	-23	159	1660	129173	1658	71096293
-505	137	4010	-851	-844	-9059	-51	-23	159	1661	129275	1659	71096294
-520	144	4033	-847	-838	-9083	-51	-11	159	1662	129329	1660	71096296
-514	150	4039	-846	-843	-9051	-51	-11	159	1663	129431	1661	71096297
-515	155	4019	-847	-841	-9044	-39	-31	169	1664	129485	1662	71096330
-509	143	4047	-843	-845	-9055	-39	-31	169	1665	129587	1663	71096331
-521	147	4027	-842	-843	-9054	-38	-2	166	1666	129641	1664	71096334
-519	132	4040	-844	-838	-9056	-38	-2	166	1667	129743	1665	71096334
-507	129	4039	-848	-842	-9049	-32	-16	168	1668	129797	1666	71096336
-515	126	4011	-847	-844	-9062	-32	-16	168	1669	129899	1667	71096338
-519	132	4032	-841	-846	-9064	-30	0	170	1670	129953	1668	71096338
-512	133	4047	-843	-840	-9037	-30	0	170	1671	130055	1669	71096343
-526	124	4041	-839	-849	-9046	-33	1	159	1672	130109	1670	71096344
-522	141	4025	-839	-850	-9059	-33	1	159	1673	130211	1671	71096347
-517	148	4014	-844	-845	-9055	-19	-15	173	1674	130265	1672	71096378
-510	128	4013	-847	-848	-9057	-19	-15	173	1675	130367	1673	71096378
-508	135	4027	-843	-841	-9060	-18	12	160	1676	130421	1674	71096381
-521	134	4028	-848	-842	-9081	-18	12	160	1677	130522	1675	71096382
-507	116	4046	-847	-845	-9087	-23	-7	167	1678	130577	1676	71096385
-508	130	4029	-845	-846	-9080	-23	-7	167	1679	130679	1677	71096385
-521	128	4037	-838	-841	-9062	-5	5	159	1680	130733	1678	71096388
-501	147	4023	-841	-846	-9045	-5	5	159	1681	130834	1679	71096394
-504	137	4036	-844	-850	-9066	-7	9	153	1682	130888	1680	71096394
-512	142	4053	-843	-850	-9072	-7	9	153	1683	130990	1681	71096404
-504	142	4031	-845	-846	-9051	-2	-4	164	1684	131044	1682	71096404
-525	129	4024	-846	-840	-9056	-2	-4	164	1685	131146	1683	71096408
-517	121	4028	-849	-842	-9071	6	12	154	1686	131200	1684	71096418
-501	127	4028	-846	-843	-9068	6	12	154	1687	131302	1685	71096420
-518	151	4040	-841	-840	-9065	-11	-13	159	1688	131356	1686	71096452
-504	137	4042	-844	-843	-9054	-11	-13	159	1689	131458	1687	71096453
-505	135	4044	-849	-842	-9083	3	13	143	1690	131512	1688	71096455
-521	132	4030	-839	-840	-9076	3	13	143	1691	131614	1689	71096456
-515	137	4042	-846	-838	-9051	5	9	137	1692	131668	1690	71096456
-484	125	4028	-847	-846	-9056	5	9	137	1693	131769	1691	71096460
-504	132	4034	-840	-842	-9056	-1	13	141	1694	131824	1692	71096460
-527	150	4013	-842	-845	-9055	-1	13	141	1695	131926	1693	71096463
-498	129	4026	-845	-846	-9070	12	16	138	1696	131980	1694	71096465
-508	114	4034	-846	-849	-9079	12	16	138	1697	132082	1695	71096466
-509	132	4029	-839	-846	-9056	10	12	146	1698	132136	1696	71096500
-508	145	4011	-844	-846	-9057	10	12	146	1699	132238	1697	71096501
-513	120	4032	-845	-840	-9074	18	18	134	1700	132292	1698	71096504
-494	129	4007	-846	-835	-9068	18	18	134	1701	132394	1699	71096504
-510	129	4023	-844	-842	-9047	10	18	134	1702	132447	1700	71096505
-508	138	4054	-844	-841	-9045	10	18	134	1703	132549	1701	71096508
-527	121	4050	-843	-843	-9073	18	18	132	1704	132602	1702	71096508
-510	135	4049	-845	-841	-9068	18	18	132	1705	132704	1703	71096511
-505	132	4039	-844	-843	-9055	26	18	132	1706	132758	1704	71096512
-488	134	4039	-844	-840	-9070	26	18	132	1707	132860	1705	71096515
-499	126	4032	-845	-841	-9045	21	23	141	1708	132914	1706	71096548
-481	104	3997	-844	-847	-9040	21	23	141	1709	133015	1707	71096548
-513	106	4036	-844	-842	-9061	29	25	127	1710	133069	1708	71096551
-499	136	4005	-841	-842	-9089	29	25	127	1711	133171	1709	71096557
-508	121	4041	-842	-841	-9078	29	25	129	1712	133224	1710	71096558
-489	117	4046	-848	-845	-9065	29	25	129	1713	133325	1711	71096559
-499	122	4017	-845	-841	-9071	29	33	123	1714	133380	1712	71096560
-495	131	4047	-841	-839	-9063	29	33	123	1715	133482	1713	71096561
-498	134	4039	-847	-841	-9037	38	20	124	1716	133536	1714	71096561
-512	103	4017	-844	-844	-9044	38	20	124	1717	133638	1715	71096564
-506	129	4017	-841	-843	-9071	36	24	120	1718	133692	1716	71096596
-508	111	4025	-843	-844	-9050	36	24	120	1719	133794	1717	71096597
-514	133	4063	-847	-847	-9032	43	27	119	1720	133848	1718	71096600
-491	143	4063	-848	-842	-9024	43	27	119	1721	133950	1719	71096600
-492	139	4054	-844	-842	-9041	49	25	119	1722	134004	1720	71096602
-492	138	4027	-847	-846	-9059	49	25	119	1723	134106	1721	71096604
-499	111	4015	-846	-845	-9034	45	29	113	1724	134160	1722	71096604
-511	118	4033	-844	-844	-9058	45	29	113	1725	134262	1723	71096609
-477	125	4026	-839	-848	-9062	46	26	114	1726	134316	1724	71096609
-493	137	4040	-842	-844	-9086	46	26	114	1727	134418	1725	71096613
-506	132	4041	-846	-840	-9075	54	24	112	1728	134472	1726	71096648
-486	138	4017	-844	-841	-9075	54	24	112	1729	134574	1727	71096648
-500	141	4057	-841	-841	-9061	55	15	111	1730	134628	1728	71096652
-499	122	4056	-844	-843	-9067	55	15	111	1731	134730	1729	71096653
-482	120	4035	-848	-848	-9064	57	23	107	1732	134784	1730	71096656
-487	117	4031	-841	-847	-9054	57	23	107	1733	134885	1731	71096656
-493	124	4035	-839	-843	-9049	50	22	104	1734	134940	1732	71096657
-504	129	4031	-842	-845	-9044	50	22	104	1735	135042	1733	71096660
-497	133	4047	-844	-846	-9065	52	18	102	1736	135096	1734	71096660
-486	118	4019	-844	-844	-9068	52	18	102	1737	135198	1735	71096670
-482	139	4027	-841	-842	-9070	52	12	108	1738	135252	1736	71096670
-489	115	4030	-846	-838	-9062	52	12	108	1739	135354	1737	71096674
-483	121	4018	-845	-839	-9058	60	12	104	1740	135408	1738	71096708
-482	122	4018	-843	-845	-9048	60	12	104	1741	135510	1739	71096708
-496	139	4021	-842	-843	-9072	60	12	106	1742	135564	1740	71096711
-491	133	4036	-845	-843	-9082	60	12	106	1743	135666	1741	71096712
-492	130	4042	-842	-846	-9049	54	8	98	1744	135720	1742	71096714
-495	141	4033	-841	-841	-9075	54	8	98	1745	135822	1743	71096715
-475	144	4030	-840	-847	-9073	54	12	96	1746	135876	1744	71096716
-490	135	4041	-847	-849	-9051	54	12	96	1747	135978	1745	71096719
-465	121	4049	-846	-849	-9057	57	7	101	1748	136032	1746	71096719
-487	134	4033	-841	-846	-9100	57	7	101	1749	136134	1747	71096723
-481	140	4026	-838	-842	-9066	56	6	104	1750	136188	1748	71096770
-491	133	4045	-842	-839	-9065	56	6	104	1751	136290	1749	71096771
-488	139	4022	-847	-845	-9073	55	5	107	1752	136344	1750	71096774
-488	117	4039	-845	-843	-9058	55	5	107	1753	136446	1751	71096774
-483	136	4011	-847	-845	-9067	59	9	101	1754	136500	1752	71096776
-478	146	4051	-851	-844	-9034	59	9	101	1755	136602	1753	71096778
-498	124	4004	-844	-841	-9079	51	3	105	1756	136656	1754	71096778
-484	135	4014	-840	-846	-9072	51	3	105	1757	136758	1755	71096781
-486	126	4036	-844	-844	-9058	52	0	108	1758	136812	1756	71096782
-482	141	4042	-843	-846	-9071	52	0	108	1759	136914	1757	71096784
-477	130	4026	-845	-849	-9072	57	-1	109	1760	136968	1758	71096785
-505	128	4013	-843	-844	-9065	57	-1	109	1761	137070	1759	71096786
-482	126	4027	-845	-843	-9072	50	-2	112	1762	137124	1760	71096793
-485	142	4054	-845	-842	-9088	50	-2	112	1763	137226	1761	71096793
-484	140	4006	-840	-845	-9051	57	-3	111	1764	137280	1762	71096804
-494	138	4036	-846	-844	-9052	57	-3	111	1765	137382	1763	71096804
-476	147	4055	-845	-840	-9061	53	-1	113	1766	137436	1764	71096804
-478	152	4012	-842	-845	-9080	53	-1	113	1767	137538	1765	71096839
-495	144	4006	-848	-844	-9063	60	-2	114	1768	137592	1766	71096840
-488	142	4022	-847	-841	-9042	60	-2	114	1769	137694	1767	71096842
-478	138	4029	-844	-850	-9061	57	-3	113	1770	137748	1768	71096843
-471	137	4019	-846	-845	-9045	57	-3	113	1771	137850	1769	71096845
-471	131	4021	-845	-842	-9031	59	-7	113	1772	137904	1770	71096846
-471	146	4037	-839	-839	-9072	59	-7	113	1773	138006	1771	71096847
-488	181	4028	-835	-843	-9062	57	-3	119	1774	138060	1772	71096851
-482	144	4034	-841	-843	-9070	57	-3	119	1775	138162	1773	71096852
-491	120	4034	-846	-845	-9071	57	-3	123	1776	138216	1774	71096855
-484	167	4047	-839	-842	-9074	57	-3	123	1777	138318	1775	71096888
-467	160	4032	-845	-846	-9075	60	-4	126	1778	138372	1776	71096888
-491	124	4039	-849	-841	-9058	60	-4	126	1779	138474	1777	71096891
-477	133	4026	-847	-844	-9069	57	-5	125	1780	138528	1778	71096892
-474	160	4012	-843	-842	-9064	57	-5	125	1781	138630	1779	71096894
-492	145	4031	-849	-844	-9062	60	-4	124	1782	138684	1780	71096897
-473	121	4059	-847	-843	-9054	60	-4	124	1783	138786	1781	71096897
-484	143	4053	-840	-844	-9060	57	-3	129	1784	138840	1782	71096900
-471	153	4020	-839	-843	-9060	57	-3	129	1785	138942	1783	71096901
-495	129	4012	-847	-845	-9072	61	-9	133	1786	138996	1784	71096906
-483	135	4030	-842	-844	-9053	61	-9	133	1787	139098	1785	71096937
-483	150	3989	-839	-846	-9051	65	-13	131	1788	139152	1786	71096937
-490	140	4011	-844	-842	-9074	65	-13	131	1789	139254	1787	71096940
-485	147	4045	-847	-847	-9065	66	-12	138	1790	139308	1788	71096941
-483	157	4016	-846	-846	-9077	66	-12	138	1791	139410	1789	71096944
-493	152	4030	-844	-839	-9051	57	-17	129	1792	139464	1790	71096944
-470	143	4023	-844	-842	-9053	57	-17	129	1793	139566	1791	71096948
-477	144	4024	-848	-844	-9081	63	-17	131	1794	139620	1792	71096949
-480	149	4012	-844	-844	-9080	63	-17	131	1795	139722	1793	71096950
-474	164	4008	-846	-846	-9059	60	-22	140	1796	139776	1794	71096984
-484	138	4028	-843	-849	-9070	60	-22	140	1797	139878	1795	71096984
-497	172	4047	-836	-840	-9066	66	-22	138	1798	139932	1796	71096986
-462	169	4022	-843	-844	-9059	66	-22	138	1799	140034	1797	71096988
-479	164	4049	-844	-841	-9053	62	-20	138	1800	140088	1798	71096988
-496	147	4016	-835	-843	-9082	62	-20	138	1801	140190	1799	71096991
-476	153	4034	-841	-845	-9054	65	-25	139	1802	140244	1800	71096992
-487	144	4035	-845	-842	-9026	65	-25	139	1803	140346	1801	71096994
-503	166	4042	-844	-844	-9063	65	-29	143	1804	140400	1802	71097000
-469	179	4015	-841	-849	-9071	65	-29	143	1805	140502	1803	71097000
-479	160	4027	-840	-845	-9036	65	-25	149	1806	140556	1804	71097010
-478	149	4025	-847	-845	-9043	65	-25	149	1807	140658	1805	71097010
-484	148	4038	-844	-850	-9074	65	-29	149	1808	140712	1806	71097013
-480	159	4027	-843	-845	-9062	65	-29	149	1809	140814	1807	71097047
-484	163	4022	-844	-846	-9069	64	-28	144	1810	140868	1808	71097047
-495	167	4030	-841	-850	-9084	64	-28	144	1811	140970	1809	71097050
-478	168	4007	-841	-845	-9083	69	-33	143	1812	141024	1810	71097050
-483	160	4036	-845	-839	-9058	69	-33	143	1813	141126	1811	71097053
-492	155	4036	-848	-842	-9052	62	-36	146	1814	141180	1812	71097054
-494	175	4037	-844	-844	-9085	62	-36	146	1815	141282	1813	71097054
-504	155	4026	-840	-842	-9067	60	-34	144	1816	141336	1814	71097058
-486	169	4015	-846	-846	-9047	60	-34	144	1817	141438	1815	71097058
-477	148	4044	-844	-845	-9085	64	-46	152	1818	141491	1816	71097060
-499	155	4056	-841	-843	-9061	64	-46	152	1819	141593	1817	71097070
-464	171	4034	-847	-845	-9063	61	-49	155	1820	141647	1818	71097071
-482	163	4020	-846	-841	-9049	61	-49	155	1821	141748	1819	71097105
-489	172	4004	-843	-843	-9081	60	-40	154	1822	141803	1820	71097105
-477	171	4015	-845	-842	-9052	60	-40	154	1823	141905	1821	71097109
-483	144	4031	-842	-840	-9062	56	-50	158	1824	141959	1822	71097109
-491	149	4025	-841	-842	-9059	56	-50	158	1825	142061	1823	71097111
-492	159	4022	-839	-838	-9076	61	-51	155	1826	142115	1824	71097113
-478	148	4033	-843	-841	-9061	61	-51	155	1827	142216	1825	71097113
-482	154	4034	-842	-844	-9050	54	-50	154	1828	142271	1826	71097117
-488	164	4024	-839	-848	-9069	54	-50	154	1829	142373	1827	71097118
-478	172	4025	-843	-848	-9080	55	-53	153	1830	142427	1828	71097121
-488	170	4037	-845	-846	-9049	55	-53	153	1831	142529	1829	71097156
-497	159	4061	-845	-846	-9062	54	-54	158	1832	142583	1830	71097157
-467	164	4029	-847	-847	-9088	54	-54	158	1833	142685	1831	71097157
-509	159	4032	-848	-847	-9061	51	-57	157	1834	142739	1832	71097158
-497	160	4019	-845	-844	-9036	51	-57	157	1835	142841	1833	71097160
-490	190	4028	-846	-845	-9084	50	-62	160	1836	142895	1834	71097164
-494	180	4022	-847	-840	-9077	50	-62	160	1837	142996	1835	71097167
-483	162	4045	-845	-841	-9034	49	-65	159	1838	143050	1836	71097168
-486	165	4016	-843	-844	-9059	49	-65	159	1839	143152	1837	71097170
-505	179	4008	-847	-842	-9073	44	-60	158	1840	143206	1838	71097172
-491	160	4030	-845	-846	-9073	44	-60	158	1841	143308	1839	71097204
-493	153	4042	-841	-845	-9059	41	-65	161	1842	143362	1840	71097204
-474	161	4003	-841	-849	-9096	41	-65	161	1843	143464	1841	71097208
-498	172	4053	-848	-845	-9098	37	-67	161	1844	143518	1842	71097208
-508	175	4038	-847	-846	-9045	37	-67	161	1845	143620	1843	71097215
-480	164	4024	-844	-846	-9075	43	-63	161	1846	143674	1844	71097217
-492	153	4006	-848	-840	-9068	43	-63	161	1847	143776	1845	71097218
-502	165	4015	-850	-845	-9051	37	-67	153	1848	143830	1846	71097219
-492	152	4022	-850	-848	-9050	37	-67	153	1849	143932	1847	71097220
-513	160	4032	-840	-842	-9071	39	-69	161	1850	143986	1848	71097221
-503	169	4054	-844	-850	-9083	39	-69	161	1851	144088	1849	71097230
-496	162	4037	-846	-849	-9071	37	-75	163	1852	144142	1850	71097230
-502	163	4004	-846	-842	-9066	37	-75	163	1853	144244	1851	71097265
-505	174	4008	-846	-845	-9087	30	-70	162	1854	144298	1852	71097266
-492	177	4020	-843	-845	-9066	30	-70	162	1855	144400	1853	71097269
-514	150	4024	-843	-846	-9045	33	-71	153	1856	144454	1854	71097269
