Accl X	Accl Y	Accl Z	Gyro X	Gyro Y	Gyro Z	Mag X	Mag Y	Mag Z	RPkt#	Rtime	LPkt#	Ltime
791	268	3900	-314	-1004	-9062	35	53	111	0	0	0	68971138
771	273	3927	-305	-973	-9094	35	53	111	1	29	1	68971146
748	277	3979	-297	-962	-9088	30	50	100	2	123	2	68971146
713	291	4014	-297	-952	-9085	30	50	100	3	150	3	68971147
684	303	4052	-310	-973	-9102	30	50	100	4	179	4	68971152
708	288	4050	-311	-984	-9086	29	53	107	5	273	5	68971152
717	277	4029	-312	-986	-9080	29	53	107	6	300	6	68971159
749	305	3989	-309	-973	-9097	29	53	107	7	329	7	68971160
734	295	3964	-307	-968	-9087	26	54	100	8	423	8	68971161
714	285	3940	-312	-969	-9114	26	54	100	9	450	9	68971163
723	290	3940	-313	-977	-9085	26	54	100	10	479	10	68971164
736	290	3908	-310	-976	-9066	22	58	102	11	573	11	68971171
759	291	3944	-307	-980	-9090	22	58	102	12	600	12	68971171
725	283	3974	-316	-979	-9070	22	58	102	13	629	13	68971171
728	292	4027	-315	-979	-9059	23	53	93	14	723	14	68971178
721	278	4034	-309	-986	-9085	23	53	93	15	750	15	68971178
719	282	4022	-307	-981	-9095	23	53	93	16	779	16	68971184
720	303	4020	-307	-987	-9068	15	51	95	17	873	17	68971185
729	294	3997	-304	-995	-9095	15	51	95	18	900	18	68971185
783	280	3938	-308	-991	-9074	15	51	95	19	929	19	68971191
797	283	3915	-309	-991	-9073	17	51	91	20	1023	20	68971194
784	292	3950	-304	-984	-9100	17	51	91	21	1050	21	68971197
735	297	4020	-310	-969	-9081	17	51	91	22	1074	22	68971197
706	301	4029	-306	-969	-9058	17	51	83	23	1167	23	68971198
711	301	4042	-310	-974	-9084	17	51	83	24	1178	24	68971201
724	305	4038	-312	-979	-9073	17	51	83	25	1295	25	68971201
722	300	4013	-308	-979	-9092	17	51	83	26	1413	26	68971207
734	298	4019	-310	-973	-9089	17	49	89	27	1507	27	68971207
731	294	3991	-310	-974	-9097	17	49	89	28	1517	28	68971214
727	282	3962	-313	-971	-9070	17	49	89	29	1635	29	68971214
745	283	3944	-318	-969	-9075	17	49	89	30	1753	30	68971215
728	276	3941	-315	-976	-9070	13	51	89	31	1870	31	68971221
731	285	3937	-319	-981	-9066	13	51	89	32	1899	32	68971221
747	297	3953	-312	-980	-9039	13	51	89	33	2017	33	68971225
730	284	3966	-314	-983	-9082	13	51	89	34	2135	34	68971225
711	272	3999	-312	-978	-9078	7	49	75	35	2229	35	68971226
693	282	4004	-309	-970	-9099	7	49	75	36	2234	36	68971232
696	286	3991	-303	-975	-9066	7	49	75	37	2352	37	68971232
701	306	4005	-302	-986	-9075	7	49	75	38	2469	38	68971237
722	308	4000	-305	-987	-9053	0	54	84	39	2563	39	68971237
732	299	3948	-306	-989	-9072	0	54	84	40	2563	40	68971237
739	301	3932	-307	-986	-9114	0	54	84	41	2691	41	68971241
729	290	3927	-309	-981	-9084	0	54	84	42	2809	42	68971241
726	301	3950	-306	-979	-9102	5	47	79	43	2903	43	68971249
725	314	3956	-305	-986	-9067	5	47	79	44	2913	44	68971250
723	311	3988	-306	-985	-9086	5	47	79	45	3030	45	68971250
732	316	4017	-311	-983	-9053	-2	58	78	46	3135	46	68971256
743	321	4041	-311	-983	-9083	-2	58	78	47	3164	47	68971256
739	314	4019	-314	-977	-9100	-2	58	78	48	3173	48	68971263
715	298	3988	-315	-976	-9100	-2	58	78	49	3202	49	68971263
716	286	4001	-317	-971	-9083	2	54	74	50	3296	50	68971264
738	267	3990	-317	-972	-9084	2	54	74	51	3323	51	68971267
766	301	3983	-311	-976	-9095	2	54	74	52	3352	52	68971267
748	302	3961	-313	-967	-9078	-9	57	77	53	3446	53	68971274
734	296	3960	-311	-974	-9084	-9	57	77	54	3473	54	68971275
715	288	3994	-313	-971	-9089	-9	57	77	55	3502	55	68971275
711	282	3992	-311	-972	-9084	-4	56	76	56	3596	56	68971303
708	291	3980	-310	-982	-9089	-4	56	76	57	3623	57	68971304
708	296	3978	-308	-977	-9060	-4	56	76	58	3652	58	68971306
696	302	3965	-311	-985	-9085	0	58	68	59	3746	59	68971306
715	300	3956	-311	-991	-9070	0	58	68	60	3773	60	68971308
723	287	3958	-305	-979	-9107	0	58	68	61	3802	61	68971309
701	278	3959	-304	-985	-9093	-13	59	71	62	3896	62	68971312
711	288	3969	-305	-986	-9097	-13	59	71	63	3923	63	68971312
743	286	3967	-302	-984	-9081	-13	59	71	64	3952	64	68971313
740	284	3992	-306	-986	-9115	-12	60	78	65	4046	65	68971314
738	296	4013	-310	-986	-9099	-12	60	78	66	4073	66	68971314
715	290	3973	-309	-986	-9086	-12	60	78	67	4102	67	68971315
738	290	3983	-308	-984	-9099	-14	58	72	68	4196	68	68971316
721	288	3995	-311	-977	-9065	-14	58	72	69	4223	69	68971317
723	295	4001	-308	-983	-9072	-14	58	72	70	4252	70	68971319
729	299	3985	-309	-980	-9087	-12	58	82	71	4346	71	68971320
715	287	3965	-312	-974	-9102	-12	58	82	72	4373	72	68971320
725	299	3958	-305	-978	-9069	-12	58	82	73	4402	73	68971327
732	318	3952	-309	-975	-9081	-10	58	76	74	4496	74	68971328
744	290	3973	-315	-971	-9081	-10	58	76	75	4523	75	68971334
702	274	3989	-311	-980	-9052	-10	58	76	76	4552	76	68971335
697	278	3974	-308	-972	-9081	-20	62	82	77	4646	77	68971336
706	280	3973	-303	-977	-9083	-20	62	82	78	4673	78	68971338
698	278	3960	-311	-979	-9080	-20	62	82	79	4702	79	68971339
706	265	3980	-311	-981	-9098	-22	58	78	80	4796	80	68971346
706	276	3980	-310	-989	-9071	-22	58	78	81	4823	81	68971347
723	313	3970	-307	-976	-9071	-22	58	78	82	4852	82	68971354
715	305	3953	-306	-981	-9094	-26	66	72	83	4946	83	68971355
722	291	3971	-307	-979	-9077	-26	66	72	84	4973	84	68971355
717	294	3973	-308	-983	-9066	-26	66	72	85	5002	85	68971359
723	300	3988	-309	-988	-9077	-25	65	75	86	5096	86	68971363
726	301	4007	-307	-981	-9078	-25	65	75	87	5123	87	68971365
706	300	3989	-311	-980	-9082	-25	65	75	88	5152	88	68971366
728	298	3982	-313	-986	-9096	-30	62	78	89	5246	89	68971367
728	292	3979	-308	-982	-9077	-30	62	78	90	5273	90	68971373
721	286	3972	-313	-983	-9058	-30	62	78	91	5302	91	68971373
718	307	3969	-313	-978	-9082	-26	68	74	92	5396	92	68971378
713	310	3984	-311	-974	-9062	-26	68	74	93	5423	93	68971378
711	289	4008	-313	-979	-9093	-26	68	74	94	5452	94	68971379
726	292	4000	-312	-974	-9089	-36	68	72	95	5546	95	68971386
727	295	3988	-309	-967	-9111	-36	68	72	96	5573	96	68971386
726	287	3984	-312	-973	-9052	-36	68	72	97	5602	97	68971392
719	274	3965	-311	-970	-9060	-36	72	76	98	5696	98	68971392
704	271	3961	-313	-975	-9108	-36	72	76	99	5723	99	68971392
703	294	3970	-309	-981	-9113	-36	72	76	100	5752	100	68971398
705	275	3972	-307	-978	-9066	-37	69	73	101	5846	101	68971398
715	283	3976	-310	-979	-9061	-37	69	73	102	5873	102	68971405
706	279	3977	-305	-978	-9080	-37	69	73	103	5902	103	68971406
710	287	3981	-306	-980	-9065	-40	74	76	104	5996	104	68971406
699	280	3985	-310	-986	-9103	-40	74	76	105	6023	105	68971409
719	277	3978	-308	-978	-9097	-40	74	76	106	6052	106	68971410
723	290	3991	-306	-983	-9104	-35	75	75	107	6146	107	68971417
707	310	3973	-306	-983	-9134	-35	75	75	108	6173	108	68971417
709	296	3993	-312	-983	-9096	-35	75	75	109	6202	109	68971418
711	296	3996	-313	-989	-9074	-43	79	79	110	6296	110	68971425
701	276	3984	-307	-981	-9112	-43	79	79	111	6323	111	68971425
712	287	3977	-310	-982	-9116	-43	79	79	112	6352	112	68971432
703	280	3981	-312	-984	-9085	-43	69	77	113	6446	113	68971432
710	279	3988	-314	-977	-9091	-43	69	77	114	6473	114	68971433
704	281	3997	-307	-984	-9066	-43	69	77	115	6502	115	68971437
700	289	3982	-310	-976	-9077	-45	81	77	116	6596	116	68971438
707	294	3989	-309	-973	-9112	-45	81	77	117	6623	117	68971443
694	294	3989	-316	-983	-9086	-45	81	77	118	6652	118	68971443
707	287	3980	-313	-981	-9115	-51	83	81	119	6746	119	68971444
703	269	3979	-308	-983	-9095	-51	83	81	120	6773	120	68971449
718	281	3970	-309	-980	-9094	-51	83	81	121	6802	121	68971450
703	279	3984	-307	-975	-9074	-56	86	76	122	6896	122	68971457
712	287	3968	-310	-978	-9067	-56	86	76	123	6923	123	68971457
703	260	4013	-313	-977	-9084	-56	86	76	124	6952	124	68971463
710	261	3991	-311	-979	-9092	-56	88	74	125	7046	125	68971463
718	266	3985	-310	-982	-9064	-56	88	74	126	7073	126	68971464
701	285	3974	-308	-975	-9076	-56	88	74	127	7102	127	68971469
699	291	3943	-311	-975	-9099	-56	92	80	128	7196	128	68971470
694	278	3977	-309	-979	-9071	-56	92	80	129	7223	129	68971477
704	277	3992	-309	-980	-9093	-56	92	80	130	7252	130	68971477
706	275	3996	-308	-982	-9108	-59	89	77	131	7346	131	68971477
716	273	3998	-307	-978	-9094	-59	89	77	132	7373	132	68971481
691	281	3999	-310	-984	-9079	-59	89	77	133	7402	133	68971482
705	294	3987	-311	-985	-9090	-62	94	80	134	7496	134	68971488
698	274	3964	-314	-979	-9096	-62	94	80	135	7523	135	68971489
691	269	3975	-307	-984	-9059	-62	94	80	136	7552	136	68971491
700	277	3979	-309	-979	-9074	-66	100	74	137	7646	137	68971496
704	281	3975	-309	-968	-9075	-66	100	74	138	7673	138	68971496
702	282	3989	-310	-977	-9114	-66	100	74	139	7702	139	68971503
701	287	3988	-309	-972	-9094	-63	107	79	140	7796	140	68971503
702	294	3977	-309	-977	-9065	-63	107	79	141	7823	141	68971503
705	280	3987	-317	-976	-9074	-63	107	79	142	7852	142	68971507
709	275	3982	-318	-977	-9091	-66	102	84	143	7946	143	68971507
706	263	3976	-314	-983	-9102	-66	102	84	144	7973	144	68971515
691	274	3983	-306	-975	-9081	-66	102	84	145	8002	145	68971515
686	297	3987	-305	-976	-9073	-61	103	79	146	8096	146	68971516
679	278	3984	-308	-984	-9070	-61	103	79	147	8124	147	68971519
696	280	3997	-318	-975	-9080	-61	103	79	148	8152	148	68971519
697	260	3992	-316	-983	-9101	-69	105	83	149	8246	149	68971526
690	264	3984	-316	-984	-9082	-69	105	83	150	8273	150	68971527
692	271	3971	-309	-975	-9071	-69	105	83	151	8302	151	68971527
690	287	3983	-310	-976	-9099	-66	114	72	152	8396	152	68971534
706	286	4015	-310	-978	-9079	-66	114	72	153	8423	153	68971534
709	283	3996	-308	-982	-9097	-66	114	72	154	8452	154	68971540
700	272	3977	-309	-985	-9094	-66	120	76	155	8546	155	68971541
713	266	3990	-309	-975	-9110	-66	120	76	156	8573	156	68971546
696	282	4010	-310	-979	-9116	-66	120	76	157	8602	157	68971547
695	283	3980	-308	-978	-9089	-64	126	76	158	8690	158	68971547
713	274	3972	-309	-971	-9078	-64	126	76	159	8723	159	68971553
701	287	4005	-308	-977	-9085	-64	126	76	160	8752	160	68971553
691	291	3977	-309	-977	-9061	-73	127	79	161	8846	161	68971559
698	286	3978	-313	-977	-9095	-73	127	79	162	8873	162	68971559
702	261	3960	-316	-986	-9124	-73	127	79	163	8902	163	68971561
707	266	3986	-314	-980	-9106	-76	124	84	164	8996	164	68971567
705	256	3983	-310	-980	-9100	-76	124	84	165	9023	165	68971568
675	260	3986	-307	-973	-9076	-76	124	84	166	9052	166	68971573
676	269	4004	-311	-973	-9077	-69	135	83	167	9146	167	68971574
675	270	4001	-317	-982	-9097	-69	135	83	168	9174	168	68971574
691	275	3996	-312	-981	-9104	-69	135	83	169	9202	169	68971580
719	274	3981	-306	-975	-9061	-68	134	80	170	9296	170	68971583
701	273	4002	-305	-977	-9078	-68	134	80	171	9323	171	68971587
678	284	3973	-315	-978	-9078	-68	134	80	172	9352	172	68971588
695	275	3989	-315	-982	-9081	-76	138	84	173	9446	173	68971588
686	287	4002	-312	-983	-9097	-76	138	84	174	9473	174	68971593
709	288	3981	-305	-977	-9127	-76	138	84	175	9502	175	68971593
703	291	3971	-308	-983	-9103	-76	142	84	176	9596	176	68971598
685	282	3981	-311	-981	-9094	-76	142	84	177	9623	177	68971599
689	275	3950	-315	-978	-9091	-76	142	84	178	9652	178	68971599
700	256	3975	-316	-985	-9074	-72	152	82	179	9746	179	68971606
712	262	3973	-316	-981	-9105	-72	152	82	180	9773	180	68971606
700	268	3972	-311	-982	-9123	-72	152	82	181	9802	181	68971612
708	284	4007	-310	-978	-9124	-76	148	86	182	9896	182	68971612
710	279	4001	-309	-973	-9087	-76	148	86	183	9923	183	68971618
717	266	3985	-308	-982	-9088	-76	148	86	184	9952	184	68971618
703	266	3971	-310	-979	-9106	-67	157	87	185	10046	185	68971619
716	281	3964	-311	-982	-9073	-67	157	87	186	10073	186	68971625
730	273	3963	-315	-985	-9088	-67	157	87	187	10102	187	68971625
712	255	3968	-312	-979	-9103	-66	160	86	188	10196	188	68971633
687	249	3988	-313	-976	-9103	-66	160	86	189	10223	189	68971634
715	267	3978	-309	-978	-9111	-66	160	86	190	10252	190	68971634
719	263	3990	-307	-974	-9111	-72	166	84	191	10346	191	68971638
708	270	4005	-310	-980	-9071	-72	166	84	192	10373	192	68971639
699	244	3997	-315	-981	-9085	-72	166	84	193	10402	193	68971645
729	250	3985	-310	-978	-9094	-71	169	85	194	10496	194	68971645
727	251	3975	-308	-979	-9064	-71	169	85	195	10523	195	68971646
709	276	3975	-298	-971	-9085	-71	169	85	196	10552	196	68971652
705	285	3991	-306	-977	-9076	-67	171	85	197	10646	197	68971652
698	258	4011	-311	-982	-9075	-67	171	85	198	10673	198	68971658
708	274	3979	-308	-985	-9069	-67	171	85	199	10702	199	68971659
712	276	3984	-308	-984	-9108	-63	171	81	200	10796	200	68971659
707	275	4001	-310	-973	-9097	-63	171	81	201	10823	201	68971662
709	278	3986	-310	-975	-9099	-63	171	81	202	10852	202	68971662
693	272	3981	-309	-978	-9114	-67	179	89	203	10946	203	68971669
684	267	3984	-310	-978	-9092	-67	179	89	204	10973	204	68971670
695	271	3984	-311	-977	-9093	-67	179	89	205	11002	205	68971670
715	264	3987	-314	-977	-9109	-62	182	82	206	11096	206	68971677
716	253	3981	-315	-981	-9094	-62	182	82	207	11123	207	68971678
719	244	3980	-313	-981	-9094	-62	182	82	208	11152	208	68971685
716	245	3984	-309	-975	-9078	-57	189	93	209	11246	209	68971686
703	263	3972	-312	-972	-9069	-57	189	93	210	11273	210	68971689
704	248	3967	-318	-987	-9076	-57	189	93	211	11302	211	68971694
704	253	3989	-317	-982	-9089	-54	186	84	212	11396	212	68971695
719	253	4006	-316	-980	-9074	-54	186	84	213	11423	213	68971696
711	248	3990	-309	-982	-9074	-54	186	84	214	11452	214	68971698
714	262	3987	-307	-976	-9072	-60	192	90	215	11546	215	68971705
701	264	3981	-307	-986	-9084	-60	192	90	216	11573	216	68971705
704	279	3969	-313	-981	-9084	-60	192	90	217	11602	217	68971706
724	257	3972	-310	-982	-9076	-51	195	85	218	11696	218	68971708
697	246	3977	-306	-983	-9072	-51	195	85	219	11723	219	68971709
705	262	3976	-307	-977	-9125	-51	195	85	220	11752	220	68971715
690	257	3992	-310	-981	-9109	-53	197	91	221	11846	221	68971716
708	242	3989	-308	-980	-9102	-53	197	91	222	11873	222	68971716
697	257	3974	-306	-979	-9105	-53	197	91	223	11902	223	68971722
704	247	3975	-304	-976	-9079	-50	204	86	224	11996	224	68971722
706	263	3974	-306	-975	-9095	-50	204	86	225	12023	225	68971728
712	259	3985	-314	-980	-9123	-50	204	86	226	12052	226	68971728
713	240	3972	-316	-981	-9090	-52	196	96	227	12140	227	68971729
707	251	3995	-312	-976	-9089	-52	196	96	228	12151	228	68971732
694	258	3972	-311	-978	-9063	-52	196	96	229	12269	229	68971732
704	269	3954	-311	-976	-9053	-52	196	96	230	12387	230	68971739
708	265	3957	-313	-976	-9105	-46	206	96	231	12481	231	68971739
700	247	3976	-317	-983	-9107	-46	206	96	232	12491	232	68971740
715	241	3990	-318	-986	-9152	-46	206	96	233	12609	233	68971745
714	251	3995	-316	-977	-9112	-46	206	96	234	12727	234	68971746
696	250	3990	-308	-981	-9108	-43	207	97	235	12843	235	68971752
708	256	3973	-309	-982	-9090	-43	207	97	236	12872	236	68971752
711	247	3972	-314	-989	-9098	-43	207	97	237	12881	237	68971752
712	244	3967	-314	-991	-9084	-43	207	97	238	12910	238	68971760
717	258	3967	-312	-984	-9085	-40	222	94	239	13004	239	68971761
693	252	3988	-307	-979	-9117	-40	222	94	240	13031	240	68971763
709	252	4000	-308	-977	-9066	-40	222	94	241	13060	241	68971764
701	249	4013	-312	-974	-9066	-33	219	101	242	13154	242	68971771
715	241	4023	-308	-982	-9059	-33	219	101	243	13181	243	68971771
709	250	3988	-307	-980	-9089	-33	219	101	244	13210	244	68971772
702	266	3979	-308	-978	-9089	-32	218	94	245	13304	245	68971778
697	261	3982	-307	-983	-9085	-32	218	94	246	13331	246	68971778
723	257	3971	-313	-973	-9080	-32	218	94	247	13360	247	68971784
708	247	3948	-315	-977	-9053	-26	220	98	248	13454	248	68971784
724	250	3968	-312	-982	-9060	-26	220	98	249	13481	249	68971785
707	264	3987	-309	-977	-9092	-26	220	98	250	13510	250	68971792
719	265	4005	-308	-978	-9102	-25	223	93	251	13604	251	68971792
723	247	3997	-313	-982	-9108	-25	223	93	252	13631	252	68971798
716	241	3978	-315	-982	-9094	-25	223	93	253	13660	253	68971798
710	240	3994	-310	-979	-9062	-22	220	96	254	13754	254	68971799
697	251	4010	-310	-975	-9081	-22	220	96	255	13781	255	68971802
698	254	3990	-312	-982	-9048	-22	220	96	256	13810	256	68971803
700	243	4000	-313	-990	-9056	-14	224	100	257	13904	257	68971811
718	242	3998	-316	-987	-9100	-14	224	100	258	13931	258	68971811
714	259	3989	-314	-986	-9112	-14	224	100	259	13960	259	68971814
716	257	4003	-308	-978	-9088	-15	227	93	260	14054	260	68971818
701	260	4006	-308	-973	-9095	-15	227	93	261	14081	261	68971819
719	274	3983	-312	-985	-9069	-15	227	93	262	14110	262	68971826
713	251	3985	-311	-979	-9078	-8	228	100	263	14204	263	68971826
713	248	3986	-307	-984	-9119	-8	228	100	264	14231	264	68971827
728	255	3997	-310	-979	-9081	-8	228	100	265	14260	265	68971833
719	248	3997	-309	-975	-9042	-7	223	101	266	14354	266	68971834
705	242	3998	-307	-978	-9075	-7	223	101	267	14381	267	68971835
708	232	4018	-311	-972	-9091	-7	223	101	268	14410	268	68971836
711	234	4016	-306	-978	-9070	0	228	102	269	14504	269	68971836
728	249	3984	-306	-979	-9108	0	228	102	270	14531	270	68971843
706	246	4004	-314	-977	-9126	0	228	102	271	14560	271	68971843
713	234	3981	-314	-982	-9096	1	229	99	272	14654	272	68971850
721	255	3996	-310	-982	-9092	1	229	99	273	14682	273	68971851
722	268	3999	-314	-973	-9079	1	229	99	274	14710	274	68971854
720	279	4002	-313	-977	-9066	6	234	98	275	14804	275	68971854
728	263	3985	-315	-978	-9097	6	234	98	276	14831	276	68971854
718	246	4001	-316	-981	-9088	6	234	98	277	14860	277	68971863
733	240	4003	-313	-980	-9110	9	237	101	278	14954	278	68971863
731	253	4003	-312	-979	-9109	9	237	101	279	14981	279	68971869
708	239	3983	-312	-980	-9096	9	237	101	280	15010	280	68971869
711	248	4009	-314	-978	-9097	17	239	105	281	15104	281	68971870
726	255	4004	-313	-980	-9076	17	239	105	282	15131	282	68971873
729	226	3990	-310	-986	-9127	17	239	105	283	15160	283	68971873
723	231	3979	-314	-979	-9133	16	226	106	284	15254	284	68971907
714	233	3992	-314	-982	-9089	16	226	106	285	15281	285	68971907
707	247	4013	-311	-985	-9064	16	226	106	286	15304	286	68971907
720	254	3991	-309	-981	-9087	22	236	98	287	15402	287	68971909
740	255	3988	-310	-977	-9091	22	236	98	288	15431	288	68971909
751	260	4008	-311	-978	-9123	22	236	98	289	15440	289	68971911
720	250	3993	-312	-982	-9104	22	236	98	290	15469	290	68971912
717	233	4006	-314	-982	-9078	22	232	100	291	15563	291	68971912
715	235	3972	-318	-976	-9085	22	232	100	292	15590	292	68971914
723	245	3993	-315	-982	-9096	22	232	100	293	15619	293	68971914
726	244	3990	-312	-977	-9103	27	235	101	294	15713	294	68971943
716	241	3967	-309	-979	-9096	27	235	101	295	15740	295	68971943
699	243	3955	-316	-986	-9081	27	235	101	296	15769	296	68971945
707	237	3964	-312	-976	-9094	38	230	106	297	15863	297	68971946
726	236	4001	-313	-980	-9078	38	230	106	298	15890	298	68971946
722	229	4007	-310	-972	-9062	38	230	106	299	15919	299	68971948
722	225	4012	-313	-979	-9080	39	235	107	300	16013	300	68971948
717	236	4001	-311	-986	-9069	39	235	107	301	16040	301	68971950
742	255	3984	-309	-979	-9090	39	235	107	302	16069	302	68971951
748	261	3986	-308	-983	-9093	43	231	105	303	16163	303	68971951
735	255	3982	-310	-980	-9079	43	231	105	304	16190	304	68971953
745	248	3997	-312	-976	-9079	43	231	105	305	16219	305	68971954
719	248	3988	-313	-981	-9085	49	237	105	306	16313	306	68971955
725	245	3985	-311	-979	-9092	49	237	105	307	16340	307	68971956
726	251	3991	-311	-976	-9094	49	237	105	308	16369	308	68971957
736	259	4000	-314	-979	-9092	49	233	107	309	16463	309	68971959
739	245	3990	-312	-975	-9067	49	233	107	310	16490	310	68971964
726	225	3980	-313	-985	-9075	49	233	107	311	16519	311	68971967
724	235	3995	-310	-983	-9049	55	231	107	312	16613	312	68971968
727	229	4002	-310	-975	-9078	55	231	107	313	16640	313	68971969
738	243	3988	-311	-982	-9098	55	231	107	314	16664	314	68971974
739	262	3994	-309	-981	-9097	60	224	112	315	16757	315	68971975
733	260	3971	-310	-985	-9085	60	224	112	316	16768	316	68971976
726	252	4006	-310	-982	-9075	60	224	112	317	16885	317	68971976
724	248	3981	-311	-975	-9069	60	224	112	318	17003	318	68971977
722	248	4023	-311	-974	-9092	66	226	108	319	17097	319	68971978
736	236	4016	-310	-979	-9084	66	226	108	320	17107	320	68971979
742	241	3996	-307	-981	-9081	66	226	108	321	17225	321	68971982
730	241	3978	-309	-979	-9063	66	226	108	322	17343	322	68971982
735	257	3975	-310	-977	-9079	64	222	108	323	17460	323	68971982
732	260	3955	-312	-968	-9086	64	222	108	324	17488	324	68971983
738	255	3971	-314	-983	-9076	64	222	108	325	17606	325	68971983
710	226	3986	-311	-986	-9086	64	222	108	326	17724	326	68971989
732	231	3977	-307	-982	-9094	76	224	102	327	17818	327	68971989
749	230	3965	-302	-980	-9085	76	224	102	328	17828	328	68971993
740	257	3966	-305	-983	-9072	76	224	102	329	17946	329	68971993
730	262	3990	-311	-976	-9088	76	224	102	330	18063	330	68971993
736	262	3985	-314	-976	-9107	74	222	110	331	18157	331	68971999
751	247	3993	-309	-980	-9105	74	222	110	332	18167	332	68971999
728	254	4000	-308	-977	-9101	74	222	110	333	18285	333	68972005
729	258	3982	-305	-979	-9083	74	222	110	334	18403	334	68972006
739	266	3984	-304	-975	-9054	84	224	104	335	18497	335	68972006
742	266	3976	-308	-980	-9086	84	224	104	336	18507	336	68972009
729	255	3975	-314	-981	-9077	84	224	104	337	18625	337	68972009
738	256	3971	-317	-983	-9084	84	224	104	338	18743	338	68972017
741	241	3982	-313	-975	-9081	90	216	116	339	18837	339	68972017
728	246	3986	-311	-980	-9079	90	216	116	340	18847	340	68972017
729	251	4013	-312	-980	-9094	90	216	116	341	18965	341	68972021
729	257	4021	-309	-977	-9076	90	216	116	342	19083	342	68972021
736	258	4010	-307	-982	-9085	95	215	113	343	19177	343	68972028
737	255	3990	-309	-989	-9073	95	215	113	344	19187	344	68972029
735	241	3986	-306	-982	-9102	95	215	113	345	19305	345	68972029
717	237	3987	-309	-979	-9075	95	215	113	346	19423	346	68972032
728	256	4008	-309	-985	-9086	93	209	117	347	19517	347	68972033
726	252	3965	-309	-981	-9091	93	209	117	348	19527	348	68972041
744	252	3960	-306	-978	-9087	93	209	117	349	19645	349	68972042
738	256	3970	-307	-983	-9097	93	209	117	350	19763	350	68972042
742	269	3973	-309	-985	-9105	103	211	115	351	19857	351	68972043
730	269	3983	-311	-981	-9107	103	211	115	352	19867	352	68972044
714	260	3998	-309	-985	-9085	103	211	115	353	19985	353	68972049
720	250	3973	-312	-979	-9068	103	211	115	354	20103	354	68972053
741	249	3994	-315	-973	-9066	105	203	117	355	20197	355	68972053
758	248	3979	-308	-977	-9082	105	203	117	356	20207	356	68972056
737	257	3956	-307	-975	-9095	105	203	117	357	20325	357	68972056
735	264	3958	-308	-965	-9114	105	203	117	358	20443	358	68972059
749	261	3968	-308	-971	-9118	104	200	108	359	20537	359	68972060
750	257	3993	-315	-975	-9067	104	200	108	360	20663	360	68972067
748	246	4000	-318	-971	-9075	104	200	108	361	20665	361	68972067
742	244	4015	-312	-977	-9092	104	200	108	362	20783	362	68972067
735	245	4015	-308	-976	-9107	119	193	127	363	20877	363	68972070
736	243	3989	-308	-970	-9086	119	193	127	364	20887	364	68972071
722	263	3993	-310	-975	-9081	119	193	127	365	21005	365	68972079
729	256	4008	-311	-979	-9091	119	193	127	366	21130	366	68972079
734	261	3975	-310	-974	-9074	119	193	127	367	21159	367	68972081
739	255	3987	-311	-982	-9098	119	193	127	368	21276	368	68972085
737	251	3989	-313	-976	-9082	127	193	125	369	21385	369	68972086
726	264	3986	-311	-982	-9074	127	193	125	370	21414	370	68972093
742	263	3983	-310	-975	-9095	127	193	125	371	21532	371	68972093
741	263	3970	-308	-974	-9107	127	193	125	372	21650	372	68972094
726	262	3976	-310	-977	-9088	118	186	128	373	21744	373	68972096
739	268	3995	-311	-981	-9092	118	186	128	374	21755	374	68972097
742	256	3968	-316	-981	-9103	118	186	128	375	21872	375	68972103
757	250	3979	-316	-981	-9093	118	186	128	376	21990	376	68972104
747	233	3976	-312	-984	-9077	128	178	128	377	22084	377	68972104
758	232	3995	-306	-973	-9088	128	178	128	378	22117	378	68972109
749	266	3966	-307	-973	-9117	128	178	128	379	22146	379	68972110
751	275	3999	-305	-974	-9103	124	170	132	380	22240	380	68972116
750	269	3999	-307	-974	-9115	124	170	132	381	22267	381	68972116
741	254	3973	-313	-985	-9085	124	170	132	382	22296	382	68972116
752	274	3979	-311	-982	-9077	131	173	133	383	22390	383	68972123
754	268	3974	-310	-979	-9100	131	173	133	384	22417	384	68972123
776	272	3997	-307	-981	-9117	131	173	133	385	22446	385	68972129
764	259	3969	-311	-983	-9117	127	167	135	386	22534	386	68972130
755	250	3977	-318	-983	-9095	127	167	135	387	22567	387	68972130
758	260	3981	-314	-977	-9076	127	167	135	388	22596	388	68972136
749	252	3985	-315	-974	-9079	134	158	136	389	22690	389	68972136
739	244	3979	-313	-980	-9090	134	158	136	390	22717	390	68972142
742	266	3989	-311	-975	-9100	134	158	136	391	22746	391	68972142
738	258	3987	-313	-971	-9123	129	159	139	392	22840	392	68972148
730	255	3998	-310	-978	-9111	129	159	139	393	22867	393	68972150
739	258	3998	-309	-974	-9093	129	159	139	394	22896	394	68972152
750	261	3990	-309	-980	-9101	136	146	146	395	22990	395	68972155
763	263	4005	-308	-987	-9091	136	146	146	396	23017	396	68972155
738	266	3988	-309	-975	-9099	136	146	146	397	23046	397	68972162
738	266	3953	-303	-974	-9103	126	144	138	398	23140	398	68972162
735	287	3984	-305	-977	-9086	126	144	138	399	23167	399	68972163
744	272	3979	-313	-983	-9092	126	144	138	400	23196	400	68972168
755	265	3979	-317	-989	-9103	133	139	155	401	23288	401	68972169
750	254	3981	-315	-976	-9093	133	139	155	402	23317	402	68972174
760	272	3980	-309	-977	-9119	133	139	155	403	23435	403	68972175
733	273	3983	-310	-974	-9122	133	139	155	404	23547	404	68972175
733	270	3977	-313	-979	-9110	126	134	150	405	23641	405	68972178
743	260	3993	-313	-987	-9063	126	134	150	406	23651	406	68972179
764	247	3986	-311	-985	-9064	126	134	150	407	23769	407	68972187
753	254	3982	-311	-981	-9094	126	134	150	408	23886	408	68972187
741	259	3964	-308	-986	-9103	123	125	153	409	23990	409	68972188
720	273	3982	-306	-974	-9087	123	125	153	410	24019	410	68972193
737	279	3995	-312	-984	-9118	123	125	153	411	24137	411	68972193
747	276	3970	-312	-982	-9076	123	125	153	412	24255	412	68972196
756	281	3969	-316	-979	-9083	120	126	156	413	24349	413	68972197
761	270	3993	-316	-981	-9104	120	126	156	414	24354	414	68972205
754	280	4004	-313	-983	-9098	120	126	156	415	24472	415	68972205
757	269	3997	-311	-975	-9120	120	126	156	416	24589	416	68972206
754	261	4007	-311	-972	-9131	120	112	140	417	24693	417	68972209
761	280	3988	-305	-980	-9131	120	112	140	418	24722	418	68972209
760	280	3959	-310	-982	-9095	120	112	140	419	24840	419	68972216
749	257	3982	-311	-985	-9092	120	112	140	420	24958	420	68972217
742	265	3983	-313	-986	-9070	107	115	161	421	25052	421	68972217
746	276	3983	-311	-989	-9103	107	115	161	422	25062	422	68972221
757	274	3982	-309	-987	-9105	107	115	161	423	25180	423	68972221
752	271	3953	-308	-982	-9102	107	115	161	424	25298	424	68972228
746	272	3954	-306	-976	-9108	106	106	144	425	25391	425	68972228
745	280	3963	-314	-981	-9092	106	106	144	426	25408	426	68972229
756	280	3990	-314	-981	-9092	106	106	144	427	25437	427	68972235
753	268	3998	-312	-986	-9072	103	105	155	428	25547	428	68972236
757	274	3969	-314	-979	-9089	103	105	155	429	25575	429	68972241
760	270	3969	-305	-981	-9084	103	105	155	430	25693	430	68972242
737	282	3990	-308	-980	-9121	103	105	155	431	25811	431	68972242
734	278	3978	-312	-978	-9098	96	106	146	432	25905	432	68972245
743	275	3987	-315	-979	-9081	96	106	146	433	25915	433	68972246
764	265	3993	-317	-986	-9048	96	106	146	434	26033	434	68972251
749	256	3981	-313	-982	-9089	96	106	146	435	26151	435	68972252
754	253	3978	-312	-985	-9085	95	93	153	436	26245	436	68972252
760	265	4008	-311	-984	-9094	95	93	153	437	26278	437	68972259
770	261	3993	-311	-977	-9128	95	93	153	438	26307	438	68972259
740	276	3978	-308	-975	-9094	84	92	140	439	26401	439	68972265
741	286	3979	-305	-978	-9101	84	92	140	440	26428	440	68972265
766	274	3967	-305	-976	-9106	84	92	140	441	26457	441	68972271
764	281	3972	-311	-983	-9082	89	95	151	442	26551	442	68972272
749	273	3978	-312	-986	-9104	89	95	151	443	26578	443	68972272
755	284	3993	-310	-979	-9115	89	95	151	444	26607	444	68972279
727	293	4012	-308	-981	-9100	81	87	141	445	26701	445	68972280
733	275	3995	-312	-981	-9124	81	87	141	446	26728	446	68972286
766	270	3976	-313	-987	-9079	81	87	141	447	26757	447	68972286
750	262	3958	-313	-987	-9092	84	84	142	448	26851	448	68972286
741	268	3975	-311	-984	-9113	84	84	142	449	26878	449	68972289
747	252	3982	-311	-979	-9095	84	84	142	450	26907	450	68972290
741	264	3960	-309	-977	-9102	75	81	137	451	27001	451	68972298
750	259	3973	-313	-974	-9113	75	81	137	452	27028	452	68972299
758	280	3969	-311	-985	-9075	75	81	137	453	27057	453	68972299
756	282	3974	-309	-982	-9077	78	82	136	454	27151	454	68972305
739	264	3993	-310	-982	-9092	78	82	136	455	27178	455	68972305
775	264	3991	-308	-977	-9108	78	82	136	456	27207	456	68972312
756	269	3996	-310	-973	-9100	69	77	123	457	27301	457	68972312
744	275	3982	-308	-979	-9083	69	77	123	458	27328	458	68972313
759	277	3981	-305	-980	-9053	69	77	123	459	27357	459	68972318
762	274	4004	-307	-981	-9090	72	80	140	460	27451	460	68972319
779	273	3991	-310	-982	-9090	72	80	140	461	27478	461	68972324
751	276	3972	-310	-975	-9104	72	80	140	462	27507	462	68972325
740	277	3990	-311	-976	-9109	64	70	124	463	27601	463	68972325
736	274	4002	-311	-983	-9117	64	70	124	464	27628	464	68972331
742	286	3991	-309	-975	-9076	64	70	124	465	27657	465	68972331
743	288	4005	-313	-982	-9076	59	77	135	466	27751	466	68972337
763	275	3994	-311	-985	-9077	59	77	135	467	27778	467	68972337
743	280	3981	-310	-980	-9094	59	77	135	468	27807	468	68972337
757	285	3967	-310	-979	-9101	58	68	118	469	27901	469	68972343
743	290	3964	-309	-974	-9088	58	68	118	470	27928	470	68972344
743	305	4014	-313	-979	-9036	58	68	118	471	27957	471	68972351
742	301	3991	-313	-986	-9065	59	69	125	472	28051	472	68972351
758	301	3983	-317	-985	-9058	59	69	125	473	28078	473	68972357
757	280	3971	-312	-981	-9089	59	69	125	474	28107	474	68972357
750	287	3979	-309	-979	-9085	58	64	112	475	28201	475	68972358
759	283	3993	-313	-980	-9094	58	64	112	476	28228	476	68972362
741	268	3991	-313	-982	-9062	58	64	112	477	28257	477	68972363
733	282	4001	-314	-976	-9052	54	66	122	478	28351	478	68972369
733	283	4017	-314	-974	-9077	54	66	122	479	28378	479	68972372
759	285	3982	-313	-978	-9086	54	66	122	480	28407	480	68972372
754	263	3985	-315	-977	-9110	48	60	116	481	28501	481	68972376
737	269	3992	-314	-981	-9129	48	60	116	482	28528	482	68972376
766	288	3979	-309	-972	-9117	48	60	116	483	28557	483	68972383
733	288	3995	-308	-976	-9104	49	69	117	484	28651	484	68972384
726	285	3986	-308	-986	-9086	49	69	117	485	28678	485	68972384
753	284	3991	-310	-979	-9099	49	69	117	486	28707	486	68972389
746	279	3992	-310	-983	-9082	45	61	107	487	28801	487	68972391
739	264	3996	-309	-981	-9113	45	61	107	488	28828	488	68972395
725	283	3982	-304	-976	-9099	45	61	107	489	28857	489	68972396
741	292	3969	-309	-982	-9081	46	56	116	490	28951	490	68972396
740	294	3976	-316	-984	-9070	46	56	116	491	28978	491	68972402
741	265	3979	-315	-985	-9080	46	56	116	492	29007	492	68972402
735	286	3985	-315	-986	-9051	33	59	107	493	29101	493	68972408
742	283	3994	-311	-982	-9092	33	59	107	494	29128	494	68972408
750	273	3977	-310	-980	-9102	33	59	107	495	29157	495	68972409
734	278	3985	-310	-976	-9076	42	54	108	496	29251	496	68972414
748	282	3973	-311	-972	-9085	42	54	108	497	29278	497	68972415
736	285	3988	-310	-984	-9090	42	54	108	498	29307	498	68972422
749	301	3970	-308	-983	-9073	32	54	104	499	29401	499	68972422
740	293	3955	-308	-981	-9098	32	54	104	500	29428	500	68972423
737	281	3988	-311	-976	-9116	32	54	104	501	29457	501	68972428
739	279	3985	-312	-974	-9083	38	54	104	502	29551	502	68972429
728	271	3993	-312	-980	-9106	38	54	104	503	29578	503	68972432
748	293	4018	-309	-978	-9072	38	54	104	504	29607	504	68972433
748	305	3988	-315	-976	-9085	25	59	103	505	29701	505	68972443
741	293	3985	-317	-984	-9101	25	59	103	506	29728	506	68972443
730	278	3993	-310	-971	-9087	25	59	103	507	29757	507	68972444
745	283	3966	-307	-974	-9077	25	55	101	508	29851	508	68972447
758	291	3971	-307	-978	-9111	25	55	101	509	29878	509	68972448
739	306	3930	-308	-972	-9078	25	55	101	510	29907	510	68972454
764	301	3936	-308	-980	-9074	20	58	96	511	30001	511	68972454
768	292	3957	-308	-983	-9084	20	58	96	512	30028	512	68972455
725	293	3972	-314	-980	-9077	20	58	96	513	30057	513	68972460
725	292	3984	-317	-980	-9065	23	49	93	514	30151	514	68972461
706	292	4020	-317	-969	-9080	23	49	93	515	30178	515	68972467
715	300	4078	-320	-970	-9080	23	49	93	516	30207	516	68972467
717	295	4070	-317	-975	-9062	16	56	96	517	30301	517	68972467
726	302	4075	-318	-989	-9102	16	56	96	518	30328	518	68972474
745	305	4017	-315	-997	-9089	16	56	96	519	30351	519	68972474
760	297	3973	-317	-998	-9080	22	48	92	520	30449	520	68972478
741	277	3867	-317	-993	-9104	22	48	92	521	30478	521	68972478
736	260	3841	-306	-985	-9087	22	48	92	522	30596	522	68972479
697	264	3918	-302	-976	-9089	22	48	92	523	30714	523	68972486
710	279	3950	-302	-976	-9117	13	49	91	524	30808	524	68972487
731	296	4016	-302	-972	-9117	13	49	91	525	30818	525	68972495
735	293	4072	-306	-968	-9126	13	49	91	526	30936	526	68972496
726	293	4101	-307	-970	-9073	13	49	91	527	31053	527	68972523
717	297	4104	-302	-969	-9081	13	49	91	528	31151	528	68972523
719	300	4090	-302	-972	-9099	13	49	91	529	31184	529	68972523
742	290	3971	-306	-986	-9099	13	49	91	530	31213	530	68972525
740	302	3891	-307	-988	-9082	10	48	92	531	31307	531	68972526
744	305	3857	-310	-993	-9106	10	48	92	532	31334	532	68972528
742	281	3830	-317	-974	-9102	10	48	92	533	31363	533	68972528
732	275	3838	-316	-969	-9079	9	51	81	534	31457	534	68972528
713	252	3895	-323	-968	-9084	9	51	81	535	31484	535	68972530
701	269	4058	-325	-964	-9089	9	51	81	536	31513	536	68972531
704	272	4114	-321	-972	-9065	0	56	80	537	31607	537	68972533
712	277	4155	-314	-983	-9099	0	56	80	538	31617	538	68972533
741	306	4067	-314	-983	-9099	0	56	80	539	31640	539	68972533
742	300	4024	-316	-996	-9073	4	52	74	540	31755	540	68972535
760	276	3921	-311	-990	-9057	4	52	74	541	31784	541	68972536
747	288	3874	-303	-995	-9057	4	52	74	542	31902	542	68972538
766	290	3867	-300	-984	-9066	4	52	74	543	32020	543	68972538
743	290	3875	-303	-980	-9084	5	55	77	544	32114	544	68972538
732	295	3926	-305	-979	-9080	5	55	77	545	32124	545	68972542
706	297	3972	-302	-978	-9075	5	55	77	546	32242	546	68972542
705	294	4016	-301	-975	-9081	5	55	77	547	32360	547	68972548
708	309	4070	-304	-972	-9076	2	54	78	548	32454	548	68972549
699	333	4094	-311	-976	-9056	2	54	78	549	32464	549	68972554
730	306	4044	-310	-980	-9061	2	54	78	550	32582	550	68972554
741	302	4033	-310	-984	-9071	2	54	78	551	32700	551	68972555
744	295	3999	-311	-983	-9082	1	53	79	552	32794	552	68972583
744	302	3967	-312	-977	-9095	1	53	79	553	32804	553	68972583
742	305	3934	-314	-977	-9113	1	53	79	554	32922	554	68972585
730	321	3903	-316	-986	-9074	1	53	79	555	33040	555	68972585
721	305	3900	-321	-976	-9075	-3	53	79	556	33134	556	68972586
714	278	3937	-322	-981	-9063	-3	53	79	557	33144	557	68972588
689	272	3950	-318	-976	-9092	-3	53	79	558	33262	558	68972588
701	272	3977	-316	-973	-9084	-3	53	79	559	33374	559	68972590
701	272	4009	-320	-971	-9104	-10	58	70	560	33462	560	68972591
713	298	4034	-317	-979	-9062	-10	58	70	561	33467	561	68972591
728	294	4014	-312	-983	-9072	-10	58	70	562	33476	562	68972593
748	309	3979	-311	-985	-9069	-7	61	77	563	33481	563	68972593
757	305	3969	-304	-983	-9060	-7	61	77	564	33492	564	68972595
736	304	3973	-301	-978	-9098	-7	61	77	565	33495	565	68972595
737	311	3984	-305	-983	-9081	-14	58	68	566	33500	566	68972596
729	302	4004	-309	-985	-9087	-14	58	68	567	33511	567	68972598
734	298	3972	-307	-985	-9114	-14	58	68	568	33514	568	68972598
725	283	3987	-300	-982	-9086	-13	59	71	569	33519	569	68972601
721	282	3994	-301	-979	-9088	-13	59	71	570	33529	570	68972602
708	297	3982	-304	-975	-9107	-13	59	71	571	33533	571	68972609
710	307	3998	-308	-983	-9072	-16	56	74	572	33538	572	68972609
720	298	3971	-308	-980	-9092	-16	56	74	573	33548	573	68972610
729	307	3969	-310	-982	-9102	-16	56	74	574	33552	574	68972615
749	303	3970	-313	-973	-9068	-13	61	75	575	33557	575	68972616
736	300	3987	-319	-975	-9066	-13	61	75	576	33568	576	68972621
723	281	4010	-325	-972	-9079	-13	61	75	577	33571	577	68972622
704	291	4019	-317	-970	-9110	-18	56	74	578	33576	578	68972622
705	292	4013	-318	-981	-9113	-18	56	74	579	33587	579	68972628
709	285	3989	-317	-984	-9094	-18	56	74	580	33590	580	68972628
709	250	3963	-323	-976	-9074	-18	58	74	581	33595	581	68972636
727	244	3982	-319	-986	-9085	-18	58	74	582	33605	582	68972637
725	266	3949	-317	-986	-9083	-18	58	74	583	33609	583	68972638
710	276	3983	-309	-972	-9094	-20	68	78	584	33614	584	68972645
718	286	3994	-307	-975	-9088	-20	68	78	585	33624	585	68972646
705	287	3976	-310	-980	-9075	-20	68	78	586	33628	586	68972648
721	273	4029	-302	-981	-9067	-29	61	69	587	33633	587	68972654
706	280	4031	-299	-976	-9068	-29	61	69	588	33643	588	68972655
716	295	4043	-300	-970	-9064	-29	61	69	589	33647	589	68972655
708	309	4025	-293	-981	-9072	-26	66	78	590	33652	590	68972656
708	301	3996	-297	-984	-9089	-26	66	78	591	33662	591	68972660
699	298	3941	-301	-981	-9084	-26	66	78	592	33666	592	68972663
714	305	3913	-303	-982	-9098	-24	68	78	593	33671	593	68972663
720	318	3910	-306	-972	-9101	-24	68	78	594	33681	594	68972668
731	325	3933	-306	-975	-9056	-24	68	78	595	33685	595	68972668
717	301	3968	-317	-980	-9054	-30	68	80	596	33690	596	68972674
732	294	4019	-316	-977	-9098	-30	68	80	597	33700	597	68972674
724	299	4023	-320	-978	-9069	-30	68	80	598	33704	598	68972675
699	284	4040	-321	-977	-9078	-34	70	74	599	33709	599	68972680
702	273	4035	-321	-983	-9086	-34	70	74	600	33719	600	68972681
717	271	4016	-322	-985	-9057	-34	70	74	601	33723	601	68972686
707	272	3968	-319	-977	-9087	-34	72	76	602	33728	602	68972687
725	268	3939	-318	-979	-9076	-34	72	76	603	33733	603	68972693
743	274	3916	-313	-969	-9095	-34	72	76	604	33741	604	68972693
709	285	3924	-315	-976	-9070	-36	72	74	605	33746	605	68972693
724	279	3952	-314	-976	-9096	-36	72	74	606	33757	606	68972699
718	291	3997	-312	-976	-9063	-36	72	74	607	33760	607	68972721
709	292	4038	-307	-977	-9073	-42	76	74	608	33765	608	68972722
697	285	4045	-301	-979	-9075	-42	76	74	609	33776	609	68972723
678	284	4041	-300	-974	-9085	-42	76	74	610	33779	610	68972724
694	294	4006	-302	-983	-9080	-43	73	79	611	33784	611	68972724
700	291	3987	-296	-982	-9089	-43	73	79	612	33795	612	68972725
709	299	3943	-295	-981	-9071	-43	73	79	613	33798	613	68972725
699	298	3921	-303	-978	-9078	-45	79	75	614	33803	614	68972726
706	294	3911	-309	-980	-9099	-45	79	75	615	33813	615	68972726
703	298	3927	-312	-985	-9131	-45	79	75	616	33817	616	68972726
702	284	3970	-311	-981	-9075	-51	83	75	617	33822	617	68972727
686	271	4002	-311	-979	-9059	-51	83	75	618	33832	618	68972732
691	285	4034	-315	-982	-9076	-51	83	75	619	33836	619	68972732
699	273	4039	-322	-981	-9067	-52	84	82	620	33841	620	68972732
703	277	4026	-322	-979	-9075	-52	84	82	621	33851	621	68972739
707	288	4010	-321	-981	-9104	-52	84	82	622	33855	622	68972740
694	283	3967	-315	-974	-9076	-49	81	77	623	33860	623	68972746
712	287	3958	-312	-970	-9072	-49	81	77	624	33870	624	68972746
698	293	3965	-315	-973	-9092	-49	81	77	625	33874	625	68972746
725	280	3987	-317	-978	-9049	-59	87	77	626	33879	626	68972752
721	277	3979	-316	-981	-9085	-59	87	77	627	33889	627	68972752
722	271	3985	-311	-976	-9098	-59	87	77	628	33893	628	68972758
698	260	3982	-309	-972	-9112	-55	91	73	629	33898	629	68972758
702	263	3979	-310	-979	-9092	-55	91	73	630	33908	630	68972759
701	275	4018	-307	-976	-9114	-55	91	73	631	33912	631	68972764
712	284	3981	-300	-979	-9058	-59	95	75	632	33917	632	68972765
692	295	3990	-300	-976	-9076	-59	95	75	633	33927	633	68972772
671	305	3971	-304	-972	-9092	-59	95	75	634	33930	634	68972772
695	305	3964	-311	-986	-9086	-60	96	78	635	33935	635	68972778
687	292	3975	-312	-981	-9058	-60	96	78	636	33945	636	68972778
718	262	3970	-310	-986	-9074	-60	96	78	637	33949	637	68972779
718	297	4007	-307	-981	-9078	-62	94	76	638	33954	638	68972784
696	293	4020	-312	-979	-9067	-62	94	76	639	33964	639	68972785
689	289	4015	-323	-983	-9074	-62	94	76	640	33968	640	68972791
698	268	3984	-319	-990	-9100	-69	103	79	641	33973	641	68972791
706	273	3998	-320	-980	-9082	-69	103	79	642	33983	642	68972791
700	280	3989	-317	-981	-9094	-69	103	79	643	33987	643	68972797
705	287	4020	-314	-972	-9083	-66	96	80	644	33992	644	68972797
717	280	3999	-319	-976	-9089	-66	96	80	645	34002	645	68972803
718	270	4013	-317	-980	-9082	-66	96	80	646	34006	646	68972803
726	274	3983	-313	-973	-9072	-63	105	77	647	34011	647	68972804
714	265	3980	-308	-973	-9089	-63	105	77	648	34021	648	68972809
689	258	3978	-311	-974	-9095	-63	105	77	649	34024	649	68972810
708	259	3962	-308	-971	-9065	-68	108	80	650	34029	650	68972817
690	254	3965	-306	-976	-9091	-68	108	80	651	34040	651	68972817
699	268	3981	-307	-976	-9095	-68	108	80	652	34043	652	68972818
701	284	3969	-306	-974	-9100	-70	114	76	653	34048	653	68972823
686	281	3956	-307	-977	-9131	-70	114	76	654	34059	654	68972824
698	285	3985	-310	-974	-9105	-70	114	76	655	34062	655	68972834
693	278	3987	-309	-980	-9068	-72	112	80	656	34067	656	68972835
702	284	4008	-310	-982	-9054	-72	112	80	657	34077	657	68972837
693	287	4022	-311	-983	-9046	-72	112	80	658	34081	658	68972844
703	289	3999	-310	-985	-9070	-68	124	80	659	34086	659	68972845
696	277	3999	-313	-986	-9091	-68	124	80	660	34097	660	68972846
703	283	3982	-316	-986	-9110	-68	124	80	661	34100	661	68972846
697	285	3950	-312	-985	-9077	-71	119	77	662	34105	662	68972849
708	289	3956	-315	-977	-9092	-71	119	77	663	34115	663	68972850
710	277	3963	-319	-981	-9054	-71	119	77	664	34119	664	68972853
724	263	4008	-318	-982	-9035	-76	128	84	665	34124	665	68972856
717	273	3982	-316	-975	-9096	-76	128	84	666	34134	666	68972856
716	287	4009	-310	-979	-9107	-76	128	84	667	34138	667	68972862
708	277	4017	-315	-970	-9079	-69	131	77	668	34143	668	68972862
718	270	4015	-316	-979	-9131	-69	131	77	669	34153	669	68972863
717	269	3983	-314	-974	-9110	-69	131	77	670	34157	670	68972868
694	263	3982	-307	-972	-9115	-75	137	77	671	34162	671	68972868
695	266	3989	-305	-976	-9102	-75	137	77	672	34172	672	68972874
695	265	3963	-308	-979	-9111	-75	137	77	673	34176	673	68972874
700	264	3953	-312	-980	-9106	-72	140	80	674	34181	674	68972875
677	255	3958	-307	-983	-9104	-72	140	80	675	34191	675	68972881
691	268	3958	-307	-979	-9050	-72	140	80	676	34195	676	68972881
687	283	3987	-307	-976	-9095	-76	142	88	677	34200	677	68972888
686	279	4019	-303	-976	-9116	-76	142	88	678	34211	678	68972888
698	275	4027	-306	-979	-9095	-76	142	88	679	34214	679	68972889
705	269	4001	-314	-988	-9107	-72	144	76	680	34219	680	68972895
713	284	3988	-314	-981	-9087	-72	144	76	681	34229	681	68972895
693	287	3982	-310	-977	-9061	-72	144	76	682	34233	682	68972902
690	281	3964	-307	-986	-9085	-72	150	84	683	34238	683	68972902
714	270	3969	-311	-984	-9057	-72	150	84	684	34249	684	68972903
699	256	3980	-313	-988	-9077	-72	150	84	685	34252	685	68972906
723	260	3975	-311	-977	-9095	-66	146	90	686	34257	686	68972906
704	262	4012	-310	-970	-9070	-66	146	90	687	34267	687	68972913
701	271	4006	-311	-971	-9082	-66	146	90	688	34271	688	68972914
694	259	3999	-319	-982	-9085	-71	153	87	689	34276	689	68972914
706	260	4029	-319	-982	-9051	-71	153	87	690	34286	690	68972921
708	254	4016	-315	-988	-9096	-71	153	87	691	34290	691	68972921
707	277	3976	-311	-971	-9094	-69	157	85	692	34295	692	68972927
706	276	3985	-310	-975	-9096	-69	157	85	693	34305	693	68972927
708	275	3985	-312	-979	-9106	-69	157	85	694	34309	694	68972933
714	258	3966	-315	-979	-9083	-74	168	86	695	34314	695	68972933
714	254	3969	-309	-984	-9082	-74	168	86	696	34324	696	68972933
701	262	3973	-307	-977	-9109	-74	168	86	697	34327	697	68972939
704	268	3989	-311	-977	-9101	-61	173	83	698	34332	698	68972939
692	262	3996	-313	-980	-9115	-61	173	83	699	34343	699	68972945
695	254	3986	-313	-980	-9100	-61	173	83	700	34346	700	68972946
713	264	3992	-309	-983	-9089	-70	172	90	701	34351	701	68972946
705	263	4002	-304	-978	-9068	-70	172	90	702	34361	702	68972952
674	267	4028	-307	-969	-9085	-70	172	90	703	34365	703	68972953
699	268	3975	-314	-982	-9082	-67	173	87	704	34370	704	68972962
702	270	3976	-315	-981	-9097	-67	173	87	705	34380	705	68972965
704	259	3973	-316	-983	-9082	-67	173	87	706	34384	706	68972967
717	264	3968	-310	-979	-9077	-65	175	87	707	34389	707	68972967
700	268	3977	-311	-973	-9077	-65	175	87	708	34399	708	68972968
694	266	3990	-314	-974	-9058	-65	175	87	709	34403	709	68972970
696	271	3981	-313	-977	-9088	-60	186	88	710	34408	710	68972973
706	272	3990	-312	-975	-9100	-60	186	88	711	34418	711	68972973
712	250	3997	-308	-985	-9082	-60	186	88	712	34530	712	68972977
708	236	4019	-309	-976	-9067	-60	186	88	713	34648	713	68972977
702	243	3982	-310	-980	-9072	-59	191	93	714	34742	714	68972982
692	259	3998	-311	-981	-9041	-59	191	93	715	34752	715	68972982
687	256	3986	-312	-980	-9087	-59	191	93	716	34870	716	68972983
709	265	3999	-311	-981	-9088	-59	191	93	717	34988	717	68972988
701	258	3992	-311	-986	-9103	-58	190	92	718	35082	718	68972989
720	256	3972	-312	-979	-9089	-58	190	92	719	35092	719	68972992
717	249	4000	-310	-983	-9081	-58	190	92	720	35210	720	68972992
699	255	4008	-307	-990	-9096	-58	190	92	721	35328	721	68972999
692	253	4013	-308	-982	-9049	-54	194	88	722	35422	722	68973000
696	273	4005	-308	-982	-9078	-54	194	88	723	35432	723	68973000
698	279	4019	-307	-987	-9095	-54	194	88	724	35550	724	68973006
696	271	4005	-308	-984	-9127	-54	194	88	725	35668	725	68973006
716	257	3995	-311	-980	-9120	-49	195	91	726	35761	726	68973009
720	263	4010	-309	-981	-9083	-49	195	91	727	35772	727	68973010
715	263	3987	-306	-979	-9098	-49	195	91	728	35889	728	68973010
714	256	3979	-309	-977	-9076	-49	195	91	729	36007	729	68973016
714	250	3991	-308	-982	-9093	-54	202	94	730	36101	730	68973016
697	247	3981	-309	-985	-9067	-54	202	94	731	36111	731	68973023
700	247	3987	-315	-979	-9098	-54	202	94	732	36113	732	68973024
701	243	3976	-308	-976	-9127	-48	202	94	733	36118	733	68973025
699	247	3968	-309	-971	-9090	-48	202	94	734	36128	734	68973034
713	253	3954	-313	-972	-9076	-48	202	94	735	36254	735	68973035
706	243	3987	-314	-980	-9054	-48	202	94	736	36259	736	68973036
709	253	3994	-312	-977	-9075	-48	202	94	737	36270	737	68973037
693	254	4016	-306	-979	-9111	-48	202	94	738	36273	738	68973038
727	266	4007	-309	-977	-9116	-41	207	95	739	36278	739	68973043
701	257	3998	-310	-973	-9105	-41	207	95	740	36288	740	68973044
702	260	4003	-311	-981	-9102	-41	207	95	741	36292	741	68973049
726	250	3980	-310	-975	-9068	-36	214	92	742	36297	742	68973053
720	252	3981	-307	-975	-9050	-36	214	92	743	36308	743	68973053
703	267	3999	-305	-978	-9073	-36	214	92	744	36311	744	68973054
716	275	3971	-311	-975	-9088	-29	213	95	745	36316	745	68973054
739	264	3962	-313	-982	-9099	-29	213	95	746	36326	746	68973062
724	248	3984	-313	-988	-9115	-29	213	95	747	36330	747	68973062
720	247	4016	-309	-975	-9080	-29	221	99	748	36335	748	68973062
705	250	4026	-308	-981	-9098	-29	221	99	749	36345	749	68973068
694	249	4017	-313	-979	-9091	-29	221	99	750	36349	750	68973068
691	249	4023	-308	-978	-9094	-23	219	97	751	36354	751	68973074
707	240	4007	-312	-982	-9108	-23	219	97	752	36365	752	68973074
719	245	3983	-314	-980	-9093	-23	219	97	753	36368	753	68973082
721	244	3972	-311	-981	-9077	-28	218	94	754	36373	754	68973082
720	249	4000	-311	-977	-9077	-28	218	94	755	36383	755	68973083
730	243	3999	-311	-975	-9060	-28	218	94	756	36387	756	68973085
715	263	4006	-307	-984	-9086	-14	224	94	757	36392	757	68973086
721	262	4018	-309	-984	-9111	-14	224	94	758	36402	758	68973093
713	256	3999	-314	-982	-9101	-14	224	94	759	36406	759	68973094
703	259	3989	-315	-983	-9064	-17	225	99	760	36411	760	68973094
713	251	3970	-313	-980	-9085	-17	225	99	761	36421	761	68973101
723	247	3965	-312	-981	-9045	-17	225	99	762	36425	762	68973102
716	253	3966	-311	-975	-9075	-11	229	99	763	36430	763	68973107
707	264	3971	-310	-971	-9106	-11	229	99	764	36441	764	68973107
726	249	3978	-311	-979	-9094	-11	229	99	765	36444	765	68973108
723	257	4008	-310	-982	-9056	-8	226	102	766	36449	766	68973114
714	255	3983	-309	-980	-9064	-8	226	102	767	36459	767	68973115
705	253	3978	-309	-984	-9085	-8	226	102	768	36463	768	68973121
713	259	3990	-308	-973	-9081	-7	231	101	769	36468	769	68973122
717	253	4007	-310	-981	-9088	-7	231	101	770	36478	770	68973122
719	228	4006	-310	-985	-9099	-7	231	101	771	36482	771	68973124
724	242	3984	-310	-975	-9099	-8	226	100	772	36487	772	68973124
734	241	3973	-311	-982	-9085	-8	226	100	773	36498	773	68973133
725	250	3955	-312	-979	-9067	-8	226	100	774	36501	774	68973133
716	236	3987	-309	-978	-9095	5	229	109	775	36506	775	68973134
716	241	4003	-309	-982	-9122	5	229	109	776	36516	776	68973139
721	240	3972	-309	-976	-9102	5	229	109	777	36520	777	68973140
726	221	3995	-310	-987	-9092	6	234	104	778	36525	778	68973145
713	236	3986	-309	-980	-9078	6	234	104	779	36535	779	68973146
720	240	3994	-310	-974	-9076	6	234	104	780	36539	780	68973146
707	244	3997	-310	-985	-9114	10	232	102	781	36544	781	68973153
707	233	3972	-310	-981	-9111	10	232	102	782	36555	782	68973153
728	244	3982	-313	-976	-9123	10	232	102	783	36558	783	68973157
722	253	3972	-312	-977	-9116	9	229	105	784	36563	784	68973157
715	252	3966	-313	-977	-9059	9	229	105	785	36574	785	68973164
699	246	3985	-312	-980	-9077	9	229	105	786	36577	786	68973165
736	243	3995	-310	-972	-9073	16	232	104	787	36582	787	68973166
715	245	3982	-310	-970	-9077	16	232	104	788	36587	788	68973172
710	261	3972	-311	-977	-9133	16	232	104	789	36710	789	68973173
737	258	3975	-311	-977	-9133	19	233	103	790	36841	790	68973178
716	254	3973	-312	-984	-9106	19	233	103	791	36872	791	68973179
735	243	3963	-314	-978	-9070	19	233	103	792	36901	792	68973182
737	239	3962	-309	-976	-9090	23	237	101	793	36995	793	68973186
728	241	3992	-310	-979	-9081	23	237	101	794	37022	794	68973186
697	231	3979	-311	-977	-9101	23	237	101	795	37051	795	68973192
715	239	3982	-311	-973	-9098	29	235	99	796	37145	796	68973194
726	252	3988	-310	-980	-9066	29	235	99	797	37172	797	68973195
725	258	3999	-307	-973	-9090	29	235	99	798	37201	798	68973222
746	246	4031	-311	-985	-9093	26	234	104	799	37295	799	68973222
731	242	4045	-314	-985	-9073	26	234	104	800	37322	800	68973223
725	235	4011	-309	-973	-9063	26	234	104	801	37351	801	68973224
711	223	4019	-307	-978	-9112	36	236	112	802	37445	802	68973224
712	241	3994	-307	-976	-9115	36	236	112	803	37472	803	68973226
721	262	3999	-314	-984	-9086	36	236	112	804	37501	804	68973226
725	257	3997	-317	-982	-9085	38	226	100	805	37595	805	68973228
722	240	3987	-311	-978	-9078	38	226	100	806	37622	806	68973229
730	245	3993	-306	-978	-9081	38	226	100	807	37651	807	68973232
727	246	3994	-308	-974	-9084	46	238	102	808	37745	808	68973234
727	238	4001	-311	-974	-9096	46	238	102	809	37772	809	68973234
716	251	3991	-311	-990	-9085	46	238	102	810	37801	810	68973235
730	247	3988	-308	-981	-9067	49	231	107	811	37895	811	68973235
728	252	3997	-308	-983	-9076	49	231	107	812	37922	812	68973237
726	242	4004	-312	-975	-9097	49	231	107	813	37951	813	68973238
755	243	3979	-312	-974	-9103	54	232	106	814	38045	814	68973238
734	245	3998	-316	-977	-9103	54	232	106	815	38072	815	68973243
741	252	3982	-315	-975	-9088	54	232	106	816	38101	816	68973243
745	250	3984	-310	-973	-9058	60	230	108	817	38195	817	68973249
734	252	3989	-311	-976	-9079	60	230	108	818	38222	818	68973250
737	242	4017	-308	-975	-9097	60	230	108	819	38251	819	68973251
732	230	4018	-310	-980	-9086	60	226	104	820	38345	820	68973257
739	230	4009	-310	-984	-9112	60	226	104	821	38372	821	68973257
737	229	3982	-310	-979	-9126	60	226	104	822	38401	822	68973263
725	237	3982	-313	-979	-9090	64	230	112	823	38489	823	68973263
731	240	3974	-312	-977	-9068	64	230	112	824	38500	824	68973264
719	233	3968	-313	-984	-9084	64	230	112	825	38618	825	68973267
726	244	3990	-310	-985	-9068	64	230	112	826	38736	826	68973267
733	243	3991	-308	-980	-9102	71	229	109	827	38830	827	68973273
725	254	3988	-310	-976	-9109	71	229	109	828	38840	828	68973273
740	259	3984	-309	-981	-9090	71	229	109	829	38958	829	68973273
751	253	3997	-310	-982	-9028	71	229	109	830	39076	830	68973281
747	247	4006	-314	-977	-9060	71	223	109	831	39193	831	68973281
744	235	4015	-309	-983	-9070	71	223	109	832	39222	832	68973284
737	243	4016	-309	-977	-9109	71	223	109	833	39340	833	68973285
735	229	3999	-307	-981	-9089	71	223	109	834	39458	834	68973285
750	227	3999	-308	-983	-9102	77	223	111	835	39552	835	68973292
751	240	3981	-313	-979	-9082	77	223	111	836	39562	836	68973292
748	239	3973	-309	-979	-9070	77	223	111	837	39680	837	68973297
733	238	3962	-308	-977	-9064	77	223	111	838	39798	838	68973297
731	236	3951	-311	-971	-9063	80	218	108	839	39892	839	68973302
730	241	3973	-309	-977	-9075	80	218	108	840	39902	840	68973302
743	242	3979	-307	-981	-9082	80	218	108	841	40020	841	68973302
732	238	3982	-310	-981	-9106	80	218	108	842	40138	842	68973308
746	260	3966	-306	-978	-9114	87	215	111	843	40232	843	68973308
744	247	3992	-304	-979	-9093	87	215	111	844	40242	844	68973312
743	258	3972	-309	-977	-9076	87	215	111	845	40360	845	68973312
736	254	3970	-312	-976	-9060	87	215	111	846	40478	846	68973312
732	261	3978	-316	-984	-9077	93	211	117	847	40572	847	68973319
745	240	3993	-311	-980	-9100	93	211	117	848	40582	848	68973319
743	242	3986	-307	-977	-9084	93	211	117	849	40700	849	68973323
748	252	3978	-306	-974	-9113	93	211	117	850	40818	850	68973323
749	255	3979	-306	-976	-9083	99	209	117	851	40911	851	68973323
740	259	3972	-306	-979	-9061	99	209	117	852	40922	852	68973329
738	250	3959	-310	-978	-9063	99	209	117	853	41040	853	68973330
739	254	3976	-310	-981	-9078	99	209	117	854	41142	854	68973335
734	262	3976	-310	-979	-9097	107	205	115	855	41251	855	68973336
739	252	3988	-311	-978	-9088	107	205	115	856	41262	856	68973336
731	252	3992	-311	-980	-9118	107	205	115	857	41380	857	68973339
733	262	3977	-306	-981	-9070	107	205	115	858	41498	858	68973339
737	256	3989	-311	-983	-9084	107	199	117	859	41592	859	68973348
724	250	3977	-310	-983	-9054	107	199	117	860	41617	860	68973349
717	266	3965	-312	-981	-9053	107	199	117	861	41646	861	68973349
711	270	3959	-314	-988	-9101	111	195	125	862	41740	862	68973355
715	264	3959	-312	-991	-9102	111	195	125	863	41758	863	68973355
741	254	3987	-310	-983	-9106	111	195	125	864	41787	864	68973360
753	265	3985	-305	-981	-9123	109	193	117	865	41881	865	68973361
758	288	3977	-309	-977	-9075	109	193	117	866	41908	866	68973362
737	267	3996	-309	-985	-9081	109	193	117	867	41937	867	68973368
737	254	3991	-311	-983	-9110	120	196	128	868	42031	868	68973369
737	245	3988	-312	-981	-9102	120	196	128	869	42058	869	68973372
740	249	3987	-310	-979	-9133	120	196	128	870	42087	870	68973373
735	261	3999	-308	-974	-9095	121	193	125	871	42181	871	68973383
754	266	4004	-311	-979	-9085	121	193	125	872	42208	872	68973383
722	250	3957	-310	-982	-9077	121	193	125	873	42237	873	68973384
740	259	3974	-308	-981	-9088	120	188	130	874	42331	874	68973387
759	261	3976	-309	-977	-9079	120	188	130	875	42358	875	68973387
758	261	3993	-311	-972	-9105	120	188	130	876	42387	876	68973393
764	266	4001	-312	-974	-9088	126	180	122	877	42481	877	68973393
753	260	4000	-311	-986	-9061	126	180	122	878	42508	878	68973393
742	261	4008	-307	-974	-9065	126	180	122	879	42537	879	68973400
727	261	3977	-308	-975	-9052	118	182	132	880	42631	880	68973401
742	262	3972	-309	-972	-9093	118	182	132	881	42658	881	68973406
759	254	3985	-312	-978	-9116	118	182	132	882	42687	882	68973407
750	245	3983	-315	-982	-9106	129	169	121	883	42781	883	68973407
732	235	4007	-314	-978	-9103	129	169	121	884	42808	884	68973410
727	247	4002	-307	-981	-9066	129	169	121	885	42837	885	68973411
739	275	4003	-309	-981	-9067	124	164	138	886	42931	886	68973444
733	270	3994	-310	-978	-9114	124	164	138	887	42958	887	68973445
750	245	3958	-315	-990	-9079	124	164	138	888	42987	888	68973445
746	261	3974	-314	-984	-9083	138	158	130	889	43081	889	68973447
742	273	3991	-310	-976	-9096	138	158	130	890	43108	890	68973447
746	263	3993	-307	-982	-9088	138	158	130	891	43137	891	68973449
732	262	3984	-311	-980	-9062	126	160	140	892	43231	892	68973451
743	262	3983	-316	-978	-9096	126	160	140	893	43258	893	68973452
750	252	3982	-314	-982	-9081	126	160	140	894	43287	894	68973452
759	252	3978	-310	-974	-9087	133	153	133	895	43381	895	68973453
764	264	3991	-311	-979	-9103	133	153	133	896	43408	896	68973454
747	275	4006	-308	-974	-9095	133	153	133	897	43437	897	68973454
753	266	4005	-313	-974	-9076	127	151	147	898	43531	898	68973455
740	262	3985	-313	-981	-9092	127	151	147	899	43558	899	68973457
755	263	3982	-308	-981	-9123	127	151	147	900	43587	900	68973457
756	252	3972	-308	-977	-9099	133	141	145	901	43681	901	68973459
747	266	3991	-309	-979	-9093	133	141	145	902	43708	902	68973460
739	276	3983	-307	-980	-9089	133	141	145	903	43737	903	68973463
731	266	3983	-311	-981	-9103	126	138	146	904	43831	904	68973463
737	284	4001	-311	-980	-9089	126	138	146	905	43858	905	68973464
748	272	3968	-314	-980	-9098	126	138	146	906	43887	906	68973470
743	261	3975	-314	-982	-9086	130	128	144	907	43975	907	68973471
747	265	3995	-309	-976	-9101	130	128	144	908	43986	908	68973474
730	281	4000	-310	-980	-9082	130	128	144	909	44104	909	68973474
743	279	3995	-308	-980	-9061	130	128	144	910	44222	910	68973475
766	279	3989	-309	-980	-9073	120	128	148	911	44316	911	68973482
758	274	3977	-313	-980	-9073	120	128	148	912	44326	912	68973482
754	263	3978	-318	-983	-9062	120	128	148	913	44444	913	68973488
751	249	3984	-312	-980	-9095	120	128	148	914	44562	914	68973488
752	258	3980	-311	-977	-9115	127	117	149	915	44678	915	68973488
737	249	4014	-309	-979	-9108	127	117	149	916	44707	916	68973494
739	254	4001	-305	-981	-9096	127	117	149	917	44825	917	68973495
747	270	3989	-311	-986	-9100	127	117	149	918	44942	918	68973498
765	269	3984	-315	-983	-9084	117	117	161	919	45036	919	68973498
741	267	3990	-310	-971	-9091	117	117	161	920	45046	920	68973499
747	261	3987	-305	-978	-9125	117	117	161	921	45164	921	68973506
740	279	3974	-310	-986	-9152	117	117	161	922	45282	922	68973506
739	276	3956	-315	-982	-9109	118	106	144	923	45376	923	68973509
747	255	3970	-313	-980	-9119	118	106	144	924	45386	924	68973511
751	254	3965	-313	-981	-9069	118	106	144	925	45504	925	68973511
744	257	3961	-313	-979	-9077	118	106	144	926	45616	926	68973516
755	260	3959	-311	-982	-9102	112	114	162	927	45710	927	68973516
731	277	3983	-308	-982	-9081	112	114	162	928	45721	928	68973524
737	270	4000	-313	-980	-9106	112	114	162	929	45838	929	68973525
745	259	4011	-313	-979	-9088	109	97	139	930	45943	930	68973530
750	272	3979	-305	-982	-9068	109	97	139	931	45972	931	68973531
740	268	3970	-309	-988	-9099	109	97	139	932	46095	932	68973531
743	258	3981	-309	-988	-9099	100	108	158	933	46100	933	68973536
748	268	3976	-308	-984	-9090	100	108	158	934	46127	934	68973537
755	265	3952	-308	-982	-9100	100	108	158	935	46156	935	68973543
750	270	3943	-308	-978	-9135	93	93	141	936	46250	936	68973543
748	278	3957	-308	-974	-9118	93	93	141	937	46277	937	68973544
753	289	3967	-313	-990	-9068	93	93	141	938	46306	938	68973550
748	278	3972	-314	-978	-9081	91	103	153	939	46400	939	68973551
758	267	3974	-311	-984	-9096	91	103	153	940	46427	940	68973557
746	269	3991	-309	-979	-9110	91	103	153	941	46456	941	68973557
742	282	3980	-312	-976	-9090	93	87	137	942	46550	942	68973557
748	281	3981	-313	-976	-9078	93	87	137	943	46577	943	68973561
744	259	4003	-313	-985	-9107	93	87	137	944	46606	944	68973562
747	258	4012	-313	-982	-9116	81	95	153	945	46700	945	68973569
750	252	4005	-311	-985	-9131	81	95	153	946	46727	946	68973570
775	291	3979	-306	-976	-9103	81	95	153	947	46756	947	68973570
757	293	3989	-307	-977	-9097	79	91	129	948	46850	948	68973575
738	273	4007	-309	-980	-9113	79	91	129	949	46877	949	68973576
751	277	3977	-308	-982	-9104	79	91	129	950	46906	950	68973582
748	277	3982	-310	-989	-9086	74	96	140	951	47000	951	68973582
759	283	3982	-312	-986	-9086	74	96	140	952	47027	952	68973583
750	264	3972	-313	-980	-9120	74	96	140	953	47056	953	68973589
754	270	3963	-310	-980	-9116	77	79	125	954	47150	954	68973590
746	269	3970	-310	-980	-9137	77	79	125	955	47177	955	68973593
733	283	3989	-305	-983	-9100	77	79	125	956	47206	956	68973593
728	283	3993	-308	-981	-9092	75	81	139	957	47300	957	68973600
737	264	3992	-314	-980	-9090	75	81	139	958	47327	958	68973601
755	269	3992	-312	-977	-9075	75	81	139	959	47356	959	68973601
745	269	3986	-311	-976	-9072	63	77	127	960	47450	960	68973608
753	281	3977	-312	-977	-9100	63	77	127	961	47477	961	68973608
753	294	3983	-309	-977	-9092	63	77	127	962	47506	962	68973614
739	300	3985	-310	-972	-9072	73	79	127	963	47600	963	68973615
756	303	3986	-309	-978	-9093	73	79	127	964	47627	964	68973615
752	291	4000	-311	-980	-9098	73	79	127	965	47656	965	68973621
744	299	3970	-309	-976	-9064	64	70	128	966	47750	966	68973622
736	289	3994	-311	-977	-9086	64	70	128	967	47777	967	68973628
738	301	3983	-310	-975	-9101	64	70	128	968	47806	968	68973628
730	281	3969	-311	-977	-9098	67	73	125	969	47900	969	68973630
734	285	3979	-315	-982	-9088	67	73	125	970	47927	970	68973632
734	274	3982	-310	-975	-9078	67	73	125	971	47956	971	68973633
734	254	3961	-309	-980	-9059	57	69	127	972	48050	972	68973642
721	257	3994	-308	-984	-9087	57	69	127	973	48077	973	68973642
743	258	3980	-310	-977	-9063	57	69	127	974	48106	974	68973643
753	275	3974	-308	-982	-9048	55	65	121	975	48200	975	68973647
756	285	3986	-309	-982	-9054	55	65	121	976	48227	976	68973648
747	262	3994	-308	-981	-9105	55	65	121	977	48256	977	68973653
749	271	3990	-307	-985	-9101	57	71	123	978	48350	978	68973655
740	262	3975	-308	-979	-9112	57	71	123	979	48377	979	68973655
749	279	4003	-304	-980	-9099	57	71	123	980	48406	980	68973661
744	288	3982	-305	-983	-9095	59	67	115	981	48500	981	68973662
740	299	3994	-310	-982	-9075	59	67	115	982	48527	982	68973666
740	275	3994	-315	-984	-9083	59	67	115	983	48556	983	68973667
743	284	4001	-317	-982	-9115	53	65	121	984	48650	984	68973667
742	280	3997	-312	-974	-9124	53	65	121	985	48677	985	68973671
721	291	3969	-308	-981	-9119	53	65	121	986	48706	986	68973671
733	292	3956	-311	-975	-9120	51	57	107	987	48800	987	68973679
748	294	3979	-312	-980	-9096	51	57	107	988	48827	988	68973680
733	272	3977	-312	-982	-9043	51	57	107	989	48856	989	68973685
753	270	3970	-308	-976	-9075	45	65	113	990	48944	990	68973686
745	279	3956	-309	-981	-9097	45	65	113	991	48977	991	68973686
726	293	3974	-312	-977	-9100	45	65	113	992	49006	992	68973692
727	289	3989	-311	-981	-9149	47	59	111	993	49100	993	68973692
735	281	3993	-313	-983	-9102	47	59	111	994	49127	994	68973699
736	288	3976	-307	-978	-9093	47	59	111	995	49156	995	68973701
747	292	3986	-307	-979	-9095	38	56	118	996	49250	996	68973701
747	288	4000	-310	-984	-9080	38	56	118	997	49277	997	68973703
748	280	3995	-312	-981	-9086	38	56	118	998	49306	998	68973703
743	272	3986	-308	-983	-9097	41	57	107	999	49400	999	68973710
733	283	3977	-309	-976	-9081	41	57	107	1000	49405	1000	68973711
723	295	3990	-311	-981	-9059	41	57	107	1001	49523	1001	68973711
733	294	3989	-313	-985	-9062	41	57	107	1002	49641	1002	68973714
738	276	3980	-315	-980	-9044	37	57	107	1003	49735	1003	68973714
748	250	3989	-314	-978	-9062	37	57	107	1004	49745	1004	68973723
753	251	3969	-312	-980	-9112	37	57	107	1005	49863	1005	68973723
752	268	3971	-308	-977	-9128	37	57	107	1006	49981	1006	68973723
731	286	3984	-309	-972	-9069	37	53	105	1007	50098	1007	68973726
726	284	3979	-310	-981	-9084	37	53	105	1008	50126	1008	68973727
742	293	3978	-310	-986	-9103	37	53	105	1009	50244	1009	68973734
725	304	3968	-309	-987	-9086	37	53	105	1010	50362	1010	68973734
730	294	3968	-308	-978	-9096	32	56	102	1011	50456	1011	68973735
727	290	3969	-310	-975	-9108	32	56	102	1012	50466	1012	68973738
728	293	3989	-309	-974	-9127	32	56	102	1013	50584	1013	68973738
722	291	4008	-308	-977	-9083	32	56	102	1014	50702	1014	68973744
731	288	3981	-313	-982	-9071	34	50	102	1015	50796	1015	68973744
737	268	3976	-314	-986	-9099	34	50	102	1016	50806	1016	68973751
742	284	3993	-312	-984	-9093	34	50	102	1017	50924	1017	68973751
738	292	3988	-312	-980	-9106	34	50	102	1018	51042	1018	68973751
734	280	3997	-312	-979	-9118	17	57	97	1019	51136	1019	68973755
733	297	3992	-313	-977	-9114	17	57	97	1020	51146	1020	68973755
730	293	3979	-313	-978	-9058	17	57	97	1021	51264	1021	68973788
736	287	3987	-308	-977	-9071	17	57	97	1022	51382	1022	68973789
733	282	3970	-315	-974	-9043	20	56	90	1023	51482	1023	68973789
734	289	3970	-313	-977	-9092	20	56	90	1024	51532	1024	68973793
745	284	3987	-309	-978	-9105	20	56	90	1025	51561	1025	68973793
748	287	3973	-306	-975	-9106	20	56	90	1026	51679	1026	68973794
743	298	3975	-307	-975	-9066	20	52	88	1027	51790	1027	68973794
717	282	3970	-309	-977	-9069	20	52	88	1028	51818	1028	68973795
721	294	3997	-306	-978	-9069	20	52	88	1029	51936	1029	68973796
724	284	3963	-309	-985	-9092	20	52	88	1030	52054	1030	68973796
726	288	3966	-309	-983	-9117	13	59	87	1031	52148	1031	68973798
744	296	3974	-309	-977	-9137	13	59	87	1032	52158	1032	68973798
744	292	3989	-307	-981	-9110	13	59	87	1033	52276	1033	68973799
719	292	3970	-307	-980	-9100	13	59	87	1034	52394	1034	68973802
725	287	3972	-307	-976	-9067	8	48	80	1035	52488	1035	68973802
722	296	3997	-305	-984	-9075	8	48	80	1036	52521	1036	68973803
716	317	3986	-305	-977	-9098	8	48	80	1037	52550	1037	68973803
724	316	3965	-308	-975	-9091	3	51	81	1038	52644	1038	68973804
741	305	3953	-309	-980	-9112	3	51	81	1039	52671	1039	68973807
712	298	3971	-313	-977	-9104	3	51	81	1040	52700	1040	68973807
719	299	3996	-308	-979	-9055	10	48	82	1041	52794	1041	68973813
725	304	3969	-309	-982	-9029	10	48	82	1042	52821	1042	68973813
732	298	3985	-311	-982	-9047	10	48	82	1043	52850	1043	68973814
739	286	3980	-311	-982	-9068	12	62	84	1044	52944	1044	68973820
748	280	3995	-314	-987	-9093	12	62	84	1045	52971	1045	68973821
722	281	3961	-314	-982	-9094	12	62	84	1046	53000	1046	68973827
728	287	3967	-310	-979	-9102	5	51	77	1047	53094	1047	68973827
723	298	3985	-307	-975	-9072	5	51	77	1048	53121	1048	68973833
721	297	3991	-313	-982	-9078	5	51	77	1049	53150	1049	68973833
730	276	3998	-310	-979	-9070	5	57	81	1050	53244	1050	68973834
732	285	3985	-309	-975	-9081	5	57	81	1051	53271	1051	68973862
743	289	3983	-309	-981	-9077	5	57	81	1052	53300	1052	68973863
730	285	3973	-309	-982	-9108	1	51	77	1053	53394	1053	68973864
721	289	3967	-310	-975	-9094	1	51	77	1054	53421	1054	68973864
749	285	3996	-310	-987	-9074	1	51	77	1055	53450	1055	68973865
735	297	3960	-308	-982	-9091	-3	57	75	1056	53544	1056	68973867
724	307	3971	-309	-975	-9073	-3	57	75	1057	53571	1057	68973867
731	302	3996	-312	-986	-9097	-3	57	75	1058	53600	1058	68973869
722	314	3978	-315	-982	-9096	-4	58	74	1059	53694	1059	68973870
726	299	3997	-317	-983	-9073	-4	58	74	1060	53721	1060	68973870
708	298	3985	-308	-974	-9072	-4	58	74	1061	53750	1061	68973872
711	295	3997	-308	-973	-9100	-7	61	67	1062	53844	1062	68973872
724	305	3985	-310	-977	-9072	-7	61	67	1063	53871	1063	68973873
717	289	3961	-313	-978	-9098	-7	61	67	1064	53900	1064	68973874
708	280	3981	-311	-977	-9112	-8	52	78	1065	53994	1065	68973874
715	284	3994	-307	-980	-9107	-8	52	78	1066	54021	1066	68973878
725	290	3985	-306	-973	-9082	-8	52	78	1067	54050	1067	68973878
722	288	3990	-309	-980	-9087	-6	56	76	1068	54144	1068	68973884
723	294	3962	-310	-981	-9078	-6	56	76	1069	54171	1069	68973884
732	298	3997	-309	-983	-9063	-6	56	76	1070	54200	1070	68973885
707	303	3998	-311	-981	-9077	-11	57	77	1071	54294	1071	68973892
701	307	4015	-312	-976	-9074	-11	57	77	1072	54321	1072	68973893
733	287	3994	-313	-978	-9084	-11	57	77	1073	54350	1073	68973899
718	286	3993	-311	-976	-9079	-15	61	71	1074	54444	1074	68973903
731	288	4003	-311	-980	-9077	-15	61	71	1075	54471	1075	68973904
716	296	3982	-308	-980	-9091	-15	61	71	1076	54500	1076	68973905
718	304	3999	-307	-975	-9087	-14	56	76	1077	54594	1077	68973905
725	295	4005	-314	-977	-9096	-14	56	76	1078	54621	1078	68973913
710	284	4000	-312	-980	-9108	-14	56	76	1079	54650	1079	68973913
716	283	3985	-311	-981	-9070	-21	55	77	1080	54744	1080	68973917
704	288	3992	-310	-981	-9068	-21	55	77	1081	54771	1081	68973917
710	285	3966	-310	-977	-9115	-21	55	77	1082	54800	1082	68973918
712	290	3946	-309	-975	-9101	-17	59	77	1083	54894	1083	68973924
705	292	3961	-308	-982	-9114	-17	59	77	1084	54921	1084	68973925
691	277	3960	-308	-979	-9072	-17	59	77	1085	54950	1085	68973930
689	289	3982	-312	-978	-9048	-20	60	74	1086	55044	1086	68973930
713	292	3993	-307	-983	-9094	-20	60	74	1087	55071	1087	68973931
707	304	3955	-309	-979	-9089	-20	60	74	1088	55100	1088	68973937
718	299	3987	-311	-983	-9081	-22	68	72	1089	55194	1089	68973937
709	293	3991	-312	-984	-9119	-22	68	72	1090	55221	1090	68973943
728	277	4004	-313	-977	-9097	-22	68	72	1091	55250	1091	68973943
728	277	3990	-310	-981	-9091	-26	60	74	1092	55344	1092	68973943
720	291	4007	-309	-978	-9072	-26	60	74	1093	55371	1093	68973949
724	294	4020	-314	-982	-9106	-26	60	74	1094	55400	1094	68973949
708	304	4001	-309	-981	-9086	-28	68	78	1095	55494	1095	68973955
701	302	3996	-309	-971	-9084	-28	68	78	1096	55521	1096	68973956
720	304	3985	-310	-978	-9092	-28	68	78	1097	55550	1097	68973956
728	310	3985	-312	-978	-9072	-30	64	78	1098	55644	1098	68973963
744	287	3993	-314	-974	-9066	-30	64	78	1099	55671	1099	68973964
715	295	3971	-309	-982	-9095	-30	64	78	1100	55700	1100	68973969
708	302	3980	-309	-978	-9092	-34	70	74	1101	55794	1101	68973972
711	292	3985	-310	-975	-9107	-34	70	74	1102	55821	1102	68973973
714	293	3987	-316	-977	-9083	-34	70	74	1103	55850	1103	68973976
719	280	3982	-313	-977	-9088	-42	72	74	1104	55944	1104	68973976
706	286	3968	-309	-979	-9098	-42	72	74	1105	55971	1105	68973982
717	297	3949	-303	-974	-9090	-42	72	74	1106	56000	1106	68973982
716	306	3972	-305	-974	-9094	-40	66	78	1107	56094	1107	68973983
713	303	3972	-311	-978	-9096	-40	66	78	1108	56121	1108	68973988
709	299	3956	-313	-979	-9072	-40	66	78	1109	56150	1109	68973989
705	289	3946	-311	-980	-9079	-35	75	75	1110	56244	1110	68973994
704	294	3982	-306	-980	-9066	-35	75	75	1111	56271	1111	68973995
710	308	3987	-305	-975	-9069	-35	75	75	1112	56300	1112	68974002
692	305	3997	-308	-977	-9092	-48	78	70	1113	56394	1113	68974002
694	309	4000	-310	-980	-9091	-48	78	70	1114	56421	1114	68974002
716	294	3983	-312	-981	-9079	-48	78	70	1115	56450	1115	68974008
714	280	3982	-309	-984	-9096	-43	77	75	1116	56544	1116	68974008
717	276	3982	-309	-981	-9104	-43	77	75	1117	56571	1117	68974014
713	281	4007	-317	-985	-9075	-43	77	75	1118	56600	1118	68974015
727	268	3996	-316	-985	-9089	-46	76	74	1119	56694	1119	68974016
732	282	3996	-311	-977	-9060	-46	76	74	1120	56721	1120	68974022
707	303	3973	-308	-983	-9072	-46	76	74	1121	56750	1121	68974023
700	290	3975	-311	-980	-9091	-46	84	76	1122	56844	1122	68974027
701	278	3988	-313	-977	-9075	-46	84	76	1123	56871	1123	68974027
729	290	3980	-312	-979	-9059	-46	84	76	1124	56900	1124	68974028
707	289	3981	-310	-973	-9072	-53	81	73	1125	56994	1125	68974034
705	294	3993	-308	-973	-9080	-53	81	73	1126	57021	1126	68974035
686	293	4012	-306	-971	-9083	-53	81	73	1127	57050	1127	68974042
689	280	4019	-310	-971	-9088	-53	85	77	1128	57144	1128	68974043
710	276	4013	-315	-982	-9081	-53	85	77	1129	57171	1129	68974043
720	287	3995	-310	-977	-9034	-53	85	77	1130	57200	1130	68974047
704	278	3981	-308	-973	-9023	-55	87	73	1131	57294	1131	68974047
692	288	4001	-307	-976	-9030	-55	87	73	1132	57321	1132	68974054
708	294	3985	-306	-977	-9096	-55	87	73	1133	57350	1133	68974054
702	290	3986	-310	-984	-9087	-56	94	82	1134	57444	1134	68974055
700	286	3986	-309	-981	-9060	-56	94	82	1135	57471	1135	68974058
715	262	3980	-310	-979	-9083	-56	94	82	1136	57500	1136	68974058
713	282	3953	-310	-980	-9085	-67	97	75	1137	57594	1137	68974065
713	272	3972	-309	-976	-9067	-67	97	75	1138	57621	1138	68974065
717	266	3975	-309	-972	-9080	-67	97	75	1139	57644	1139	68974072
710	269	3997	-310	-977	-9102	-58	96	72	1140	57738	1140	68974072
711	285	4017	-307	-978	-9065	-58	96	72	1141	57748	1141	68974072
707	296	3976	-313	-980	-9076	-58	96	72	1142	57866	1142	68974075
714	274	3984	-317	-978	-9055	-58	96	72	1143	57984	1143	68974076
700	281	3977	-315	-972	-9070	-56	100	74	1144	58078	1144	68974083
715	282	3990	-313	-978	-9084	-56	100	74	1145	58088	1145	68974083
716	276	3985	-307	-980	-9105	-56	100	74	1146	58206	1146	68974084
695	297	3961	-307	-970	-9111	-56	100	74	1147	58324	1147	68974089
687	299	3989	-311	-982	-9092	-67	105	77	1148	58440	1148	68974090
710	252	3973	-314	-980	-9089	-67	105	77	1149	58469	1149	68974095
701	251	3972	-312	-975	-9076	-67	105	77	1150	58587	1150	68974096
690	266	3991	-305	-976	-9081	-67	105	77	1151	58704	1151	68974096
693	278	3950	-302	-974	-9117	-66	108	76	1152	58798	1152	68974099
691	285	3952	-307	-974	-9075	-66	108	76	1153	58808	1153	68974100
690	285	3962	-306	-978	-9090	-66	108	76	1154	58926	1154	68974107
709	266	3962	-306	-982	-9090	-66	108	76	1155	59044	1155	68974107
704	271	3994	-312	-981	-9093	-73	113	81	1156	59138	1156	68974108
708	262	3974	-308	-982	-9071	-73	113	81	1157	59148	1157	68974111
700	275	3957	-309	-977	-9084	-73	113	81	1158	59266	1158	68974111
715	262	4006	-311	-979	-9095	-73	113	81	1159	59384	1159	68974118
720	258	3984	-308	-980	-9085	-71	113	81	1160	59477	1160	68974119
699	269	3967	-306	-982	-9137	-71	113	81	1161	59488	1161	68974119
704	289	3959	-308	-979	-9109	-71	113	81	1162	59606	1162	68974122
696	290	3954	-311	-980	-9089	-71	113	81	1163	59724	1163	68974123
711	274	3956	-313	-988	-9079	-68	116	78	1164	59818	1164	68974129
724	265	3997	-317	-984	-9056	-68	116	78	1165	59828	1165	68974131
715	270	4000	-314	-983	-9097	-68	116	78	1166	59946	1166	68974131
711	278	3970	-311	-979	-9089	-68	116	78	1167	60064	1167	68974134
692	278	3974	-309	-972	-9090	-72	120	82	1168	60158	1168	68974135
697	274	3977	-311	-969	-9120	-72	120	82	1169	60168	1169	68974140
716	271	3997	-313	-975	-9119	-72	120	82	1170	60170	1170	68974141
700	263	3967	-315	-976	-9088	-69	123	81	1171	60175	1171	68974148
697	257	3978	-311	-977	-9042	-69	123	81	1172	60185	1172	68974148
713	270	3973	-308	-978	-9067	-69	123	81	1173	60311	1173	68974149
699	281	3969	-307	-972	-9092	-71	135	79	1174	60316	1174	68974154
702	285	3981	-309	-976	-9098	-71	135	79	1175	60327	1175	68974154
704	279	3975	-313	-976	-9064	-71	135	79	1176	60330	1176	68974160
699	257	3975	-309	-984	-9098	-72	134	78	1177	60335	1177	68974161
709	270	3982	-306	-978	-9090	-72	134	78	1178	60345	1178	68974161
718	284	3966	-306	-972	-9068	-72	134	78	1179	60349	1179	68974167
708	271	4006	-311	-979	-9056	-64	140	80	1180	60354	1180	68974168
714	276	4007	-310	-975	-9107	-64	140	80	1181	60364	1181	68974174
703	250	3987	-310	-979	-9094	-64	140	80	1182	60368	1182	68974175
697	264	3983	-307	-983	-9089	-71	143	81	1183	60373	1183	68974175
709	258	3968	-306	-980	-9087	-71	143	81	1184	60383	1184	68974184
696	243	3975	-313	-981	-9060	-71	143	81	1185	60387	1185	68974185
697	260	3978	-314	-979	-9056	-77	147	87	1186	60392	1186	68974187
700	275	3997	-312	-973	-9082	-77	147	87	1187	60402	1187	68974187
694	288	3999	-310	-975	-9081	-77	147	87	1188	60406	1188	68974188
680	272	3993	-311	-976	-9090	-68	146	88	1189	60411	1189	68974193
709	277	3998	-316	-981	-9093	-68	146	88	1190	60416	1190	68974193
712	267	4009	-315	-979	-9123	-68	146	88	1191	60425	1191	68974201
707	261	3985	-309	-972	-9079	-77	153	83	1192	60430	1192	68974204
682	278	4004	-306	-973	-9082	-77	153	83	1193	60440	1193	68974204
677	279	3989	-306	-974	-9096	-77	153	83	1194	60444	1194	68974205
689	255	4005	-314	-973	-9083	-75	155	85	1195	60449	1195	68974206
702	247	4010	-313	-983	-9104	-75	155	85	1196	60459	1196	68974212
699	241	4009	-315	-981	-9084	-75	155	85	1197	60463	1197	68974212
704	261	3997	-309	-977	-9056	-69	157	83	1198	60468	1198	68974219
703	268	3969	-310	-976	-9078	-69	157	83	1199	60478	1199	68974219
696	272	3983	-307	-971	-9089	-69	157	83	1200	60482	1200	68974220
701	256	3990	-310	-984	-9106	-68	164	84	1201	60613	1201	68974225
712	265	3994	-311	-984	-9114	-68	164	84	1202	60623	1202	68974226
716	267	3984	-306	-982	-9078	-68	164	84	1203	60632	1203	68974231
699	268	3980	-308	-985	-9068	-68	172	88	1204	60637	1204	68974232
694	267	3973	-309	-977	-9089	-68	172	88	1205	60647	1205	68974232
693	267	3975	-312	-978	-9081	-68	172	88	1206	60651	1206	68974238
696	271	3990	-311	-982	-9106	-65	173	87	1207	60656	1207	68974256
719	281	3984	-309	-980	-9093	-65	173	87	1208	60666	1208	68974256
705	270	3997	-310	-982	-9079	-65	173	87	1209	60670	1209	68974256
706	257	3986	-314	-979	-9061	-66	174	86	1210	60675	1210	68974256
694	247	3965	-313	-979	-9063	-66	174	86	1211	60686	1211	68974257
700	263	3993	-308	-987	-9104	-66	174	86	1212	60689	1212	68974257
716	257	3979	-306	-975	-9106	-59	179	91	1213	60694	1213	68974258
709	263	3975	-309	-976	-9085	-59	179	91	1214	60704	1214	68974258
716	267	3998	-313	-985	-9080	-59	179	91	1215	60708	1215	68974258
715	266	3973	-311	-976	-9084	-62	180	86	1216	60713	1216	68974264
709	267	3971	-308	-978	-9064	-62	180	86	1217	60724	1217	68974264
698	265	3983	-305	-976	-9085	-62	180	86	1218	60727	1218	68974270
716	268	3974	-309	-975	-9145	-61	187	87	1219	60732	1219	68974270
707	266	3997	-315	-980	-9091	-61	187	87	1220	60743	1220	68974271
724	253	3987	-316	-983	-9101	-61	187	87	1221	60746	1221	68974276
709	267	3981	-308	-983	-9083	-58	192	90	1222	60751	1222	68974277
717	267	3977	-310	-982	-9062	-58	192	90	1223	60761	1223	68974283
708	254	3980	-313	-977	-9074	-58	192	90	1224	60765	1224	68974283
687	232	3997	-311	-983	-9088	-51	195	87	1225	60770	1225	68974283
696	246	4026	-311	-975	-9096	-51	195	87	1226	60780	1226	68974289
689	244	4021	-308	-971	-9093	-51	195	87	1227	60784	1227	68974289
693	238	3978	-313	-987	-9093	-55	193	89	1228	60789	1228	68974297
715	239	3980	-315	-980	-9083	-55	193	89	1229	60799	1229	68974297
696	248	3997	-312	-982	-9065	-55	193	89	1230	60803	1230	68974303
709	246	3991	-310	-977	-9114	-53	203	89	1231	60808	1231	68974303
701	267	3988	-312	-972	-9114	-53	203	89	1232	60819	1232	68974303
714	267	3965	-313	-974	-9104	-53	203	89	1233	60822	1233	68974309
721	266	3989	-312	-977	-9068	-46	206	94	1234	60953	1234	68974309
715	256	3963	-311	-978	-9070	-46	206	94	1235	60963	1235	68974313
706	256	3989	-306	-976	-9087	-46	206	94	1236	61081	1236	68974313
691	252	3980	-307	-971	-9091	-46	206	94	1237	61198	1237	68974313
690	257	3971	-310	-973	-9079	-47	205	101	1238	61292	1238	68974319
686	266	4008	-311	-979	-9106	-47	205	101	1239	61302	1239	68974320
700	260	4024	-313	-981	-9114	-47	205	101	1240	61420	1240	68974327
714	249	4000	-313	-979	-9097	-47	205	101	1241	61538	1241	68974327
709	254	3986	-316	-989	-9097	-40	202	92	1242	61632	1242	68974327
709	245	3961	-311	-975	-9123	-40	202	92	1243	61665	1243	68974331
714	254	3973	-310	-979	-9115	-40	202	92	1244	61694	1244	68974331
710	265	3991	-315	-982	-9108	-43	215	95	1245	61788	1245	68974339
702	259	3995	-314	-976	-9111	-43	215	95	1246	61815	1246	68974340
699	268	3973	-309	-979	-9084	-43	215	95	1247	61844	1247	68974340
706	270	3975	-308	-982	-9079	-34	214	92	1248	61938	1248	68974346
720	275	3965	-308	-982	-9048	-34	214	92	1249	61965	1249	68974347
719	246	3986	-313	-985	-9073	-34	214	92	1250	61994	1250	68974352
709	240	3983	-312	-976	-9093	-35	217	93	1251	62088	1251	68974352
705	245	3989	-308	-972	-9112	-35	217	93	1252	62115	1252	68974353
727	250	3994	-307	-977	-9079	-35	217	93	1253	62144	1253	68974360
705	254	3981	-311	-978	-9088	-26	216	98	1254	62238	1254	68974360
702	256	4006	-315	-984	-9065	-26	216	98	1255	62265	1255	68974363
702	235	3987	-307	-979	-9072	-26	216	98	1256	62294	1256	68974364
697	260	3992	-307	-977	-9108	-30	226	100	1257	62388	1257	68974373
718	270	3999	-310	-974	-9087	-30	226	100	1258	62415	1258	68974373
712	252	4000	-313	-974	-9078	-30	226	100	1259	62444	1259	68974374
708	254	4016	-315	-980	-9090	-26	218	98	1260	62538	1260	68974378
723	259	3997	-313	-989	-9085	-26	218	98	1261	62565	1261	68974379
717	245	3979	-310	-976	-9067	-26	218	98	1262	62594	1262	68974384
717	260	3970	-309	-977	-9107	-24	226	98	1263	62688	1263	68974385
709	256	3982	-308	-977	-9098	-24	226	98	1264	62715	1264	68974385
701	246	3970	-314	-983	-9112	-24	226	98	1265	62744	1265	68974391
697	252	3983	-314	-986	-9117	-15	221	99	1266	62838	1266	68974391
721	246	3994	-311	-983	-9090	-15	221	99	1267	62865	1267	68974398
706	238	3982	-314	-985	-9056	-15	221	99	1268	62894	1268	68974398
704	232	4006	-315	-982	-9059	-15	227	95	1269	62988	1269	68974398
712	237	3996	-312	-974	-9098	-15	227	95	1270	63015	1270	68974402
702	234	3994	-311	-979	-9109	-15	227	95	1271	63044	1271	68974402
724	237	4002	-309	-978	-9106	-9	229	97	1272	63138	1272	68974410
710	238	3981	-310	-976	-9092	-9	229	97	1273	63165	1273	68974411
715	239	3967	-315	-985	-9059	-9	229	97	1274	63194	1274	68974411
719	251	3977	-314	-979	-9066	-7	229	105	1275	63288	1275	68974417
699	248	3965	-311	-980	-9081	-7	229	105	1276	63315	1276	68974417
705	259	4001	-305	-970	-9098	-7	229	105	1277	63344	1277	68974423
699	262	3983	-306	-967	-9093	-6	232	100	1278	63438	1278	68974423
705	251	3998	-309	-974	-9109	-6	232	100	1279	63465	1279	68974424
712	242	3992	-313	-972	-9083	-6	232	100	1280	63494	1280	68974431
723	253	3972	-313	-975	-9069	2	228	98	1281	63588	1281	68974431
726	240	3984	-311	-979	-9079	2	228	98	1282	63615	1282	68974437
725	256	3991	-306	-966	-9126	2	228	98	1283	63644	1283	68974438
730	240	4011	-311	-974	-9089	2	234	98	1284	63738	1284	68974438
731	239	4000	-309	-981	-9100	2	234	98	1285	63765	1285	68974443
746	237	3982	-307	-973	-9071	2	234	98	1286	63794	1286	68974443
734	246	3987	-308	-977	-9057	9	233	105	1287	63888	1287	68974449
716	250	3987	-311	-982	-9093	9	233	105	1288	63915	1288	68974449
707	245	3996	-313	-981	-9112	9	233	105	1289	63944	1289	68974456
707	245	4012	-310	-987	-9093	17	233	103	1290	64038	1290	68974456
714	258	3994	-310	-983	-9121	17	233	103	1291	64065	1291	68974456
728	266	3988	-313	-984	-9066	17	233	103	1292	64094	1292	68974463
725	256	3984	-313	-981	-9029	23	231	107	1293	64188	1293	68974463
742	247	3993	-315	-975	-9075	23	231	107	1294	64215	1294	68974469
730	242	3989	-311	-983	-9099	23	231	107	1295	64244	1295	68974469
734	238	3981	-309	-974	-9104	23	235	103	1296	64338	1296	68974469
719	249	3982	-312	-975	-9115	23	235	103	1297	64365	1297	68974473
713	243	4028	-311	-978	-9085	23	235	103	1298	64394	1298	68974473
724	232	4012	-311	-973	-9089	22	232	102	1299	64488	1299	68974502
731	235	4002	-314	-975	-9099	22	232	102	1300	64515	1300	68974502
724	233	3991	-308	-980	-9105	22	232	102	1301	64544	1301	68974502
730	235	3993	-307	-977	-9071	30	238	108	1302	64638	1302	68974504
727	239	3990	-310	-981	-9080	30	238	108	1303	64665	1303	68974505
731	238	4000	-312	-979	-9088	30	238	108	1304	64694	1304	68974507
713	241	3970	-308	-980	-9095	35	233	99	1305	64788	1305	68974507
735	236	3973	-307	-981	-9074	35	233	99	1306	64815	1306	68974507
743	251	3982	-309	-977	-9079	35	233	99	1307	64844	1307	68974511
731	257	3979	-308	-982	-9101	34	238	102	1308	64938	1308	68974512
731	247	3995	-311	-984	-9098	34	238	102	1309	64965	1309	68974513
724	246	4009	-313	-981	-9091	34	238	102	1310	64994	1310	68974514
715	259	3997	-311	-988	-9093	38	240	102	1311	65088	1311	68974514
718	259	3989	-310	-982	-9074	38	240	102	1312	65115	1312	68974515
746	247	3996	-312	-984	-9062	38	240	102	1313	65144	1313	68974515
723	238	4001	-311	-984	-9066	49	231	105	1314	65238	1314	68974522
720	230	3998	-310	-977	-9086	49	231	105	1315	65265	1315	68974523
726	242	4011	-306	-975	-9077	49	231	105	1316	65294	1316	68974523
737	250	3985	-307	-976	-9074	51	231	109	1317	65388	1317	68974527
721	243	4009	-313	-967	-9058	51	231	109	1318	65415	1318	68974528
735	245	4007	-308	-980	-9076	51	231	109	1319	65444	1319	68974533
716	252	4003	-307	-977	-9109	55	235	105	1320	65538	1320	68974533
726	251	3990	-307	-975	-9079	55	235	105	1321	65565	1321	68974540
731	252	3996	-309	-976	-9082	55	235	105	1322	65594	1322	68974540
727	250	3996	-313	-979	-9078	60	226	104	1323	65688	1323	68974541
728	258	3994	-313	-979	-9064	60	226	104	1324	65715	1324	68974544
732	246	3987	-311	-980	-9086	60	226	104	1325	65744	1325	68974545
729	240	3961	-311	-979	-9099	60	232	106	1326	65838	1326	68974553
720	247	3952	-310	-979	-9076	60	232	106	1327	65865	1327	68974553
736	242	3977	-316	-972	-9104	60	232	106	1328	65894	1328	68974554
727	255	3953	-316	-979	-9124	69	223	107	1329	65988	1329	68974560
730	242	3961	-314	-980	-9115	69	223	107	1330	66015	1330	68974562
740	255	3978	-312	-974	-9087	69	223	107	1331	66044	1331	68974566
721	254	3973	-313	-976	-9077	66	226	112	1332	66138	1332	68974566
742	251	3986	-311	-978	-9061	66	226	112	1333	66165	1333	68974567
726	252	3985	-311	-980	-9106	66	226	112	1334	66194	1334	68974574
731	259	3985	-311	-982	-9090	79	227	109	1335	66288	1335	68974574
751	258	3995	-308	-980	-9098	79	227	109	1336	66315	1336	68974580
739	260	3978	-311	-980	-9110	79	227	109	1337	66344	1337	68974582
752	254	3975	-308	-979	-9095	74	220	112	1338	66438	1338	68974583
755	259	3986	-312	-976	-9087	74	220	112	1339	66465	1339	68974584
738	232	3998	-312	-977	-9117	74	220	112	1340	66494	1340	68974584
730	237	4000	-314	-974	-9106	91	227	111	1341	66588	1341	68974592
738	244	3989	-312	-975	-9111	91	227	111	1342	66615	1342	68974593
754	258	3984	-312	-980	-9079	91	227	111	1343	66644	1343	68974593
729	269	3993	-314	-976	-9084	85	217	113	1344	66738	1344	68974598
748	254	3978	-314	-975	-9071	85	217	113	1345	66765	1345	68974598
717	245	3995	-310	-973	-9091	85	217	113	1346	66794	1346	68974604
741	240	3985	-312	-972	-9108	91	215	115	1347	66888	1347	68974605
728	238	3998	-313	-977	-9118	91	215	115	1348	66915	1348	68974605
731	257	4002	-315	-977	-9077	91	215	115	1349	66944	1349	68974612
737	252	4020	-312	-975	-9045	93	213	119	1350	67038	1350	68974613
735	251	4021	-309	-977	-9074	93	213	119	1351	67065	1351	68974616
732	250	4003	-309	-977	-9083	93	213	119	1352	67094	1352	68974616
733	257	3998	-308	-981	-9087	102	210	112	1353	67188	1353	68974623
730	247	3990	-312	-979	-9097	102	210	112	1354	67215	1354	68974624
744	255	4000	-308	-979	-9085	102	210	112	1355	67244	1355	68974624
747	260	4000	-309	-977	-9061	99	201	117	1356	67332	1356	68974633
739	259	3981	-317	-979	-9082	99	201	117	1357	67365	1357	68974634
716	253	3954	-311	-983	-9106	99	201	117	1358	67394	1358	68974637
724	247	3974	-308	-980	-9086	101	205	115	1359	67488	1359	68974638
744	248	3981	-312	-975	-9072	101	205	115	1360	67515	1360	68974638
749	254	3984	-308	-975	-9071	101	205	115	1361	67544	1361	68974645
737	265	3976	-307	-979	-9042	105	199	117	1362	67638	1362	68974645
744	268	3976	-309	-975	-9068	105	199	117	1363	67665	1363	68974653
745	267	4013	-311	-981	-9059	105	199	117	1364	67694	1364	68974655
724	269	4009	-307	-975	-9055	121	197	119	1365	67788	1365	68974655
729	256	3992	-308	-973	-9085	121	197	119	1366	67815	1366	68974655
767	250	3992	-310	-983	-9113	121	197	119	1367	67844	1367	68974656
751	253	4001	-314	-974	-9080	116	186	118	1368	67938	1368	68974663
745	254	3980	-317	-977	-9078	116	186	118	1369	67965	1369	68974664
741	245	3982	-315	-974	-9099	116	186	118	1370	67994	1370	68974664
734	257	3984	-315	-971	-9100	119	195	125	1371	68088	1371	68974669
733	259	3972	-314	-978	-9099	119	195	125	1372	68115	1372	68974670
741	238	3959	-313	-974	-9079	119	195	125	1373	68144	1373	68974675
755	250	3995	-310	-975	-9087	117	187	127	1374	68238	1374	68974676
757	258	4005	-309	-978	-9065	117	187	127	1375	68265	1375	68974676
754	271	4001	-308	-972	-9075	117	187	127	1376	68294	1376	68974683
754	254	3996	-310	-982	-9098	127	183	129	1377	68388	1377	68974683
742	251	4002	-311	-981	-9091	127	183	129	1378	68416	1378	68974687
735	268	3990	-309	-980	-9084	127	183	129	1379	68444	1379	68974687
738	261	3973	-306	-981	-9104	128	176	122	1380	68538	1380	68974687
744	267	3982	-303	-979	-9087	128	176	122	1381	68566	1381	68974694
741	246	3977	-308	-984	-9056	128	176	122	1382	68594	1382	68974695
749	252	3982	-310	-980	-9090	121	175	137	1383	68688	1383	68974702
748	262	3980	-308	-976	-9070	121	175	137	1384	68715	1384	68974702
743	237	3974	-305	-979	-9070	121	175	137	1385	68744	1385	68974708
752	240	4017	-311	-972	-9098	128	170	124	1386	68838	1386	68974709
760	248	4036	-312	-971	-9087	128	170	124	1387	68865	1387	68974709
751	243	4006	-314	-980	-9073	128	170	124	1388	68894	1388	68974715
774	240	4006	-313	-976	-9111	127	163	141	1389	68988	1389	68974715
766	243	4003	-313	-972	-9095	127	163	141	1390	69015	1390	68974722
758	258	3986	-312	-973	-9094	127	163	141	1391	69044	1391	68974722
756	276	3977	-310	-969	-9090	135	157	133	1392	69138	1392	68974722
758	264	3996	-314	-976	-9059	135	157	133	1393	69165	1393	68974725
746	273	3995	-314	-975	-9084	135	157	133	1394	69194	1394	68974726
748	270	3995	-313	-980	-9056	129	147	145	1395	69288	1395	68974734
749	260	3996	-311	-982	-9084	129	147	145	1396	69315	1396	68974734
751	264	3990	-310	-978	-9073	129	147	145	1397	69344	1397	68974735
743	272	3980	-313	-985	-9056	130	156	138	1398	69438	1398	68974738
745	277	3993	-312	-977	-9069	130	156	138	1399	69443	1399	68974738
748	252	3988	-312	-973	-9061	130	156	138	1400	69561	1400	68974745
746	252	3975	-309	-977	-9066	130	156	138	1401	69679	1401	68974746
745	250	3971	-306	-974	-9076	128	148	148	1402	69773	1402	68974746
734	246	3981	-308	-974	-9077	128	148	148	1403	69783	1403	68974752
742	248	3985	-312	-978	-9096	128	148	148	1404	69901	1404	68974752
744	262	3970	-312	-979	-9123	128	148	148	1405	70019	1405	68974755
762	261	3974	-311	-974	-9091	128	136	142	1406	70136	1406	68974756
752	271	3984	-307	-983	-9097	128	136	142	1407	70165	1407	68974756
745	268	3966	-311	-979	-9099	128	136	142	1408	70283	1408	68974763
761	268	4012	-308	-984	-9102	128	136	142	1409	70401	1409	68974763
744	265	3999	-308	-985	-9102	117	131	153	1410	70495	1410	68974767
743	281	3980	-312	-979	-9088	117	131	153	1411	70505	1411	68974767
746	281	3973	-314	-977	-9107	117	131	153	1412	70623	1412	68974768
749	275	3976	-312	-982	-9088	117	131	153	1413	70741	1413	68974774
744	273	3984	-315	-985	-9080	121	123	141	1414	70835	1414	68974775
751	261	3993	-313	-975	-9066	121	123	141	1415	70845	1415	68974778
741	258	3983	-312	-980	-9065	121	123	141	1416	70963	1416	68974778
729	268	3971	-313	-979	-9126	121	123	141	1417	71081	1417	68974785
747	259	3975	-312	-983	-9108	123	123	157	1418	71175	1418	68974786
743	256	3985	-316	-987	-9106	123	123	157	1419	71185	1419	68974786
747	247	3988	-315	-983	-9088	123	123	157	1420	71303	1420	68974789
747	250	3974	-309	-977	-9118	123	123	157	1421	71420	1421	68974789
739	244	3973	-309	-981	-9073	111	113	151	1422	71514	1422	68974797
754	260	3971	-311	-980	-9064	111	113	151	1423	71524	1423	68974797
739	266	3980	-310	-979	-9091	111	113	151	1424	71642	1424	68974797
755	255	3983	-312	-979	-9073	111	113	151	1425	71760	1425	68974800
754	268	3985	-309	-982	-9099	110	110	152	1426	71853	1426	68974801
744	261	3976	-305	-977	-9079	110	110	152	1427	71864	1427	68974806
744	257	3963	-306	-980	-9098	110	110	152	1428	71982	1428	68974807
739	271	3970	-305	-981	-9088	110	110	152	1429	72100	1429	68974807
752	262	4004	-309	-978	-9082	100	106	152	1430	72194	1430	68974813
745	264	3994	-311	-984	-9083	100	106	152	1431	72204	1431	68974814
757	268	3991	-312	-983	-9095	100	106	152	1432	72322	1432	68974819
753	261	4013	-307	-976	-9097	100	106	152	1433	72440	1433	68974820
747	279	3993	-311	-975	-9104	109	103	151	1434	72534	1434	68974820
746	273	3998	-310	-982	-9101	109	103	151	1435	72559	1435	68974826
733	274	3971	-312	-982	-9096	109	103	151	1436	72588	1436	68974826
740	276	3969	-315	-989	-9096	92	110	150	1437	72682	1437	68974832
754	252	3983	-313	-987	-9088	92	110	150	1438	72700	1438	68974832
732	263	3958	-308	-981	-9140	92	110	150	1439	72729	1439	68974833
733	265	3973	-309	-982	-9135	89	93	147	1440	72823	1440	68974840
746	263	3984	-312	-979	-9111	89	93	147	1441	72850	1441	68974840
749	278	3991	-313	-983	-9107	89	93	147	1442	72879	1442	68974846
743	274	3989	-312	-983	-9102	88	98	148	1443	72973	1443	68974847
740	280	3986	-313	-981	-9079	88	98	148	1444	73000	1444	68974853
755	274	3978	-313	-988	-9084	88	98	148	1445	73029	1445	68974854
748	262	3977	-315	-984	-9111	88	88	144	1446	73123	1446	68974854
752	249	3993	-313	-981	-9103	88	88	144	1447	73150	1447	68974859
732	262	3997	-309	-982	-9093	88	88	144	1448	73179	1448	68974859
748	282	3976	-310	-981	-9087	83	85	141	1449	73273	1449	68974864
753	293	3982	-312	-978	-9078	83	85	141	1450	73300	1450	68974865
753	263	3972	-314	-983	-9078	83	85	141	1451	73329	1451	68974865
746	263	3961	-312	-978	-9109	84	86	142	1452	73423	1452	68974871
742	266	3961	-312	-975	-9109	84	86	142	1453	73450	1453	68974871
734	286	3967	-305	-973	-9076	84	86	142	1454	73479	1454	68974878
732	281	3994	-308	-974	-9080	75	85	127	1455	73573	1455	68974878
742	279	3970	-315	-981	-9078	75	85	127	1456	73600	1456	68974878
741	288	3985	-312	-978	-9092	75	85	127	1457	73629	1457	68974884
751	282	3967	-311	-984	-9140	74	84	134	1458	73723	1458	68974884
756	280	3973	-305	-986	-9107	74	84	134	1459	73750	1459	68974891
751	272	3984	-314	-980	-9063	74	84	134	1460	73779	1460	68974892
743	272	3971	-312	-980	-9054	67	79	119	1461	73867	1461	68974892
742	273	3966	-316	-983	-9074	67	79	119	1462	73883	1462	68974898
744	268	3986	-316	-983	-9074	67	79	119	1463	73912	1463	68974898
762	289	4000	-315	-982	-9096	68	80	142	1464	74022	1464	68974904
759	279	3992	-315	-980	-9090	68	80	142	1465	74051	1465	68974904
753	274	4004	-314	-985	-9069	68	80	142	1466	74169	1466	68974905
747	270	3969	-313	-979	-9075	68	80	142	1467	74287	1467	68974908
736	288	3995	-312	-977	-9076	68	74	126	1468	74381	1468	68974908
745	298	3975	-307	-977	-9102	68	74	126	1469	74391	1469	68974915
739	281	3983	-308	-976	-9115	68	74	126	1470	74509	1470	68974916
744	283	3986	-311	-980	-9118	68	74	126	1471	74627	1471	68974921
756	281	3975	-310	-982	-9096	59	75	121	1472	74721	1472	68974922
735	285	3975	-312	-977	-9100	59	75	121	1473	74754	1473	68974922
732	281	3983	-312	-981	-9113	59	75	121	1474	74783	1474	68974928
734	283	4003	-312	-982	-9059	62	68	128	1475	74877	1475	68974929
743	282	4002	-312	-979	-9059	62	68	128	1476	74904	1476	68974934
758	273	3991	-311	-979	-9097	62	68	128	1477	74933	1477	68974934
750	278	3994	-310	-984	-9094	62	70	122	1478	75027	1478	68974935
738	271	4001	-309	-979	-9113	62	70	122	1479	75054	1479	68974940
772	285	3975	-311	-979	-9106	62	70	122	1480	75083	1480	68974941
749	282	3978	-311	-980	-9083	54	64	114	1481	75177	1481	68974947
753	270	3996	-307	-979	-9116	54	64	114	1482	75204	1482	68974947
745	285	3980	-312	-976	-9105	54	64	114	1483	75233	1483	68974947
752	283	3970	-309	-973	-9099	50	66	122	1484	75327	1484	68974953
748	274	3989	-310	-977	-9107	50	66	122	1485	75354	1485	68974953
733	283	4008	-307	-981	-9113	50	66	122	1486	75383	1486	68974960
738	275	4002	-309	-974	-9109	51	57	115	1487	75477	1487	68974961
743	281	3976	-311	-975	-9096	51	57	115	1488	75504	1488	68974961
747	298	3977	-309	-974	-9110	51	57	115	1489	75533	1489	68974967
738	303	3993	-311	-977	-9104	45	61	119	1490	75627	1490	68974967
734	290	3994	-315	-979	-9104	45	61	119	1491	75654	1491	68974974
750	281	3980	-312	-978	-9104	45	61	119	1492	75683	1492	68974975
724	278	3955	-308	-980	-9097	48	54	110	1493	75777	1493	68974975
734	289	3975	-308	-978	-9113	48	54	110	1494	75804	1494	68974978
749	278	4006	-311	-979	-9105	48	54	110	1495	75833	1495	68974979
751	280	4010	-312	-986	-9080	45	65	113	1496	75927	1496	68974986
742	281	3993	-310	-983	-9097	45	65	113	1497	75954	1497	68974986
712	272	3992	-309	-984	-9086	45	65	113	1498	75983	1498	68974993
712	280	3990	-311	-975	-9080	44	52	102	1499	76071	1499	68974993
736	280	3982	-312	-975	-9082	44	52	102	1500	76104	1500	68974994
730	282	3982	-310	-982	-9060	44	52	102	1501	76133	1501	68974999
732	299	3997	-311	-980	-9083	38	58	114	1502	76227	1502	68975000
758	303	3999	-306	-977	-9094	38	58	114	1503	76254	1503	68975005
737	291	3974	-312	-983	-9086	38	58	114	1504	76283	1504	68975006
722	277	3986	-313	-975	-9086	37	55	105	1505	76377	1505	68975006
728	278	4002	-311	-978	-9071	37	55	105	1506	76404	1506	68975012
730	291	3973	-311	-978	-9068	37	55	105	1507	76433	1507	68975012
729	291	3977	-311	-975	-9080	37	53	107	1508	76527	1508	68975018
751	285	3988	-309	-970	-9107	37	53	107	1509	76554	1509	68975018
744	275	3972	-314	-985	-9091	37	53	107	1510	76583	1510	68975018
742	282	3965	-315	-984	-9100	27	47	101	1511	76677	1511	68975024
737	273	3971	-313	-989	-9069	27	47	101	1512	76704	1512	68975025
725	283	3997	-314	-974	-9093	27	47	101	1513	76733	1513	68975032
729	275	3975	-312	-975	-9113	28	60	100	1514	76827	1514	68975032
742	285	3966	-309	-980	-9069	28	60	100	1515	76854	1515	68975032
746	286	4007	-312	-975	-9099	28	60	100	1516	76883	1516	68975038
722	276	3986	-309	-979	-9095	18	50	102	1517	76977	1517	68975038
721	278	3983	-308	-983	-9071	18	50	102	1518	77004	1518	68975045
736	286	4000	-315	-975	-9090	18	50	102	1519	77033	1519	68975046
724	285	3995	-317	-981	-9099	21	49	97	1520	77127	1520	68975046
726	273	3995	-315	-979	-9113	21	49	97	1521	77154	1521	68975049
743	290	3997	-311	-985	-9092	21	49	97	1522	77183	1522	68975050
737	299	4001	-313	-984	-9105	19	51	95	1523	77277	1523	68975058
730	287	4020	-312	-978	-9060	19	51	95	1524	77304	1524	68975058
741	286	3997	-312	-982	-9052	19	51	95	1525	77333	1525	68975058
748	278	4008	-312	-984	-9057	18	40	96	1526	77427	1526	68975064
731	279	4006	-308	-986	-9068	18	40	96	1527	77454	1527	68975064
738	291	3980	-307	-984	-9101	18	40	96	1528	77483	1528	68975070
742	301	3961	-312	-983	-9124	15	55	85	1529	77577	1529	68975071
732	305	3967	-311	-979	-9086	15	55	85	1530	77604	1530	68975077
728	299	3965	-307	-980	-9055	15	55	85	1531	77627	1531	68975077
731	300	3971	-306	-974	-9091	18	44	94	1532	77721	1532	68975077
729	289	3986	-312	-980	-9086	18	44	94	1533	77754	1533	68975083
731	298	3985	-315	-975	-9109	18	44	94	1534	77783	1534	68975083
724	295	3997	-315	-978	-9114	11	57	85	1535	77877	1535	68975089
720	306	3999	-313	-983	-9117	11	57	85	1536	77904	1536	68975090
738	300	3995	-311	-978	-9077	11	57	85	1537	77933	1537	68975091
731	295	3997	-308	-983	-9060	12	48	82	1538	78027	1538	68975095
730	293	3988	-307	-985	-9085	12	48	82	1539	78054	1539	68975096
721	291	4011	-314	-978	-9059	12	48	82	1540	78083	1540	68975103
728	290	3982	-313	-983	-9083	1	51	83	1541	78177	1541	68975103
745	282	3972	-310	-978	-9129	1	51	83	1542	78204	1542	68975104
743	303	3997	-308	-975	-9097	1	51	83	1543	78233	1543	68975109
750	300	3994	-307	-978	-9083	13	53	81	1544	78327	1544	68975110
744	287	3990	-310	-971	-9088	13	53	81	1545	78354	1545	68975140
727	297	3972	-309	-980	-9106	13	53	81	1546	78383	1546	68975141
747	300	3991	-306	-977	-9115	4	58	80	1547	78477	1547	68975141
729	308	3989	-306	-973	-9111	4	58	80	1548	78504	1548	68975143
724	296	4013	-315	-979	-9095	4	58	80	1549	78533	1549	68975143
728	294	4004	-314	-978	-9076	3	53	71	1550	78627	1550	68975145
740	293	3996	-313	-977	-9084	3	53	71	1551	78654	1551	68975146
741	279	3970	-308	-981	-9091	3	53	71	1552	78683	1552	68975147
724	300	3966	-306	-979	-9099	3	61	75	1553	78777	1553	68975148
711	301	3962	-308	-982	-9130	3	61	75	1554	78804	1554	68975148
711	284	3992	-315	-980	-9078	3	61	75	1555	78833	1555	68975151
731	276	3997	-312	-977	-9064	-1	59	71	1556	78927	1556	68975151
713	264	3967	-309	-983	-9063	-1	59	71	1557	78954	1557	68975152
731	315	3991	-309	-976	-9088	-1	59	71	1558	78983	1558	68975153
720	309	4012	-308	-982	-9074	-5	55	75	1559	79077	1559	68975153
712	287	4007	-310	-985	-9087	-5	55	75	1560	79104	1560	68975155
725	299	3977	-309	-976	-9091	-5	55	75	1561	79133	1561	68975156
726	291	3987	-307	-978	-9069	-3	55	75	1562	79227	1562	68975159
726	309	3977	-309	-976	-9074	-3	55	75	1563	79254	1563	68975160
716	281	3989	-317	-977	-9074	-3	55	75	1564	79283	1564	68975160
732	291	3967	-313	-983	-9075	-9	57	73	1565	79377	1565	68975167
711	294	3971	-310	-980	-9102	-9	57	73	1566	79404	1566	68975167
727	292	3999	-311	-978	-9092	-9	57	73	1567	79433	1567	68975174
711	279	3984	-313	-986	-9107	-10	56	72	1568	79527	1568	68975175
711	285	4002	-313	-976	-9087	-10	56	72	1569	79554	1569	68975176
721	266	3998	-312	-979	-9048	-10	56	72	1570	79583	1570	68975182
718	268	3989	-306	-973	-9067	-12	56	74	1571	79677	1571	68975183
727	295	3980	-305	-972	-9079	-12	56	74	1572	79704	1572	68975187
719	312	3991	-312	-979	-9067	-12	56	74	1573	79733	1573	68975189
702	305	3995	-313	-976	-9082	-12	54	76	1574	79827	1574	68975189
701	293	3991	-315	-982	-9055	-12	54	76	1575	79854	1575	68975193
710	274	3983	-311	-977	-9066	-12	54	76	1576	79883	1576	68975193
715	294	3985	-311	-977	-9075	-14	66	74	1577	79977	1577	68975199
728	303	3986	-309	-978	-9079	-14	66	74	1578	80004	1578	68975201
744	297	4018	-314	-980	-9066	-14	66	74	1579	80033	1579	68975201
748	303	4000	-313	-982	-9101	-16	66	72	1580	80127	1580	68975207
724	298	3980	-310	-985	-9077	-16	66	72	1581	80154	1581	68975207
728	304	3976	-310	-979	-9075	-16	66	72	1582	80183	1582	68975213
733	294	3975	-313	-984	-9094	-16	64	74	1583	80277	1583	68975213
710	278	3990	-315	-986	-9048	-16	64	74	1584	80304	1584	68975213
709	291	3971	-308	-981	-9105	-16	64	74	1585	80333	1585	68975219
712	308	3965	-307	-982	-9091	-23	65	75	1586	80427	1586	68975219
722	314	3980	-308	-974	-9063	-23	65	75	1587	80454	1587	68975225
714	293	3959	-312	-978	-9100	-23	65	75	1588	80483	1588	68975225
717	304	3964	-313	-985	-9068	-24	62	72	1589	80577	1589	68975225
700	298	3969	-315	-982	-9049	-24	62	72	1590	80604	1590	68975232
709	295	3984	-307	-985	-9069	-24	62	72	1591	80633	1591	68975232
724	287	3971	-308	-980	-9077	-24	64	78	1592	80727	1592	68975238
727	290	4000	-312	-975	-9100	-24	64	78	1593	80755	1593	68975238
722	290	4000	-311	-980	-9091	-24	64	78	1594	80783	1594	68975245
716	286	4013	-310	-978	-9087	-26	70	74	1595	80877	1595	68975246
717	285	4003	-307	-975	-9108	-26	70	74	1596	80904	1596	68975246
717	288	3956	-306	-980	-9094	-26	70	74	1597	80933	1597	68975251
708	297	3968	-307	-974	-9113	-32	68	76	1598	81027	1598	68975252
712	279	3971	-310	-979	-9113	-32	68	76	1599	81054	1599	68975258
710	283	3961	-309	-973	-9084	-32	68	76	1600	81083	1600	68975258
713	284	3975	-312	-971	-9076	-30	68	80	1601	81177	1601	68975258
710	292	3967	-311	-977	-9087	-30	68	80	1602	81204	1602	68975264
712	302	3980	-306	-971	-9123	-30	68	80	1603	81233	1603	68975264
715	293	3988	-309	-973	-9108	-41	71	75	1604	81327	1604	68975271
716	294	3969	-310	-978	-9112	-41	71	75	1605	81354	1605	68975271
706	305	3979	-309	-977	-9081	-41	71	75	1606	81383	1606	68975271
716	285	3993	-311	-978	-9073	-34	72	74	1607	81477	1607	68975278
696	281	3987	-313	-972	-9105	-34	72	74	1608	81504	1608	68975279
713	295	3982	-310	-983	-9113	-34	72	74	1609	81533	1609	68975284
688	288	3978	-311	-986	-9105	-42	72	76	1610	81627	1610	68975285
695	293	3986	-309	-981	-9088	-42	72	76	1611	81654	1611	68975285
681	283	3981	-314	-981	-9114	-42	72	76	1612	81683	1612	68975291
687	285	3976	-316	-982	-9068	-42	76	76	1613	81777	1613	68975291
710	275	3997	-318	-975	-9077	-42	76	76	1614	81804	1614	68975298
707	263	3982	-310	-981	-9071	-42	76	76	1615	81833	1615	68975299
705	275	3990	-306	-978	-9053	-43	77	73	1616	81927	1616	68975299
717	297	3972	-305	-977	-9058	-43	77	73	1617	81954	1617	68975302
697	283	3977	-308	-981	-9097	-43	77	73	1618	81983	1618	68975303
706	278	3979	-311	-982	-9051	-47	75	75	1619	82077	1619	68975310
704	277	3970	-315	-978	-9076	-47	75	75	1620	82104	1620	68975313
715	292	3977	-309	-978	-9093	-47	75	75	1621	82133	1621	68975313
713	284	3963	-306	-973	-9103	-52	78	76	1622	82227	1622	68975317
704	276	3989	-308	-980	-9106	-52	78	76	1623	82254	1623	68975317
708	287	3968	-311	-980	-9089	-52	78	76	1624	82283	1624	68975323
688	274	3976	-312	-978	-9071	-54	80	78	1625	82377	1625	68975324
695	275	3966	-308	-981	-9065	-54	80	78	1626	82404	1626	68975329
685	276	3960	-310	-978	-9070	-54	80	78	1627	82433	1627	68975330
699	291	3960	-310	-986	-9092	-51	81	75	1628	82527	1628	68975330
703	291	3966	-308	-987	-9051	-51	81	75	1629	82554	1629	68975336
697	293	3994	-308	-976	-9091	-51	81	75	1630	82583	1630	68975336
690	302	4002	-306	-978	-9054	-56	90	82	1631	82677	1631	68975342
707	302	3986	-306	-975	-9046	-56	90	82	1632	82704	1632	68975342
712	279	4005	-315	-981	-9054	-56	90	82	1633	82733	1633	68975342
709	282	3990	-314	-982	-9095	-65	89	77	1634	82827	1634	68975349
695	287	4007	-313	-978	-9112	-65	89	77	1635	82855	1635	68975350
725	294	3976	-307	-984	-9102	-65	89	77	1636	82883	1636	68975355
703	302	3979	-312	-977	-9124	-62	94	78	1637	82977	1637	68975356
700	286	3982	-316	-976	-9093	-62	94	78	1638	83004	1638	68975356
692	272	3978	-311	-981	-9071	-62	94	78	1639	83033	1639	68975362
704	269	3985	-309	-978	-9092	-58	94	80	1640	83121	1640	68975362
701	270	4013	-310	-975	-9096	-58	94	80	1641	83154	1641	68975368
701	283	3998	-315	-973	-9106	-58	94	80	1642	83183	1642	68975368
701	272	3997	-311	-972	-9103	-67	97	71	1643	83277	1643	68975369
694	262	3996	-310	-983	-9087	-67	97	71	1644	83304	1644	68975375
697	276	3993	-308	-980	-9077	-67	97	71	1645	83333	1645	68975375
703	299	3996	-308	-976	-9074	-63	101	77	1646	83427	1646	68975382
715	287	3991	-310	-979	-9073	-63	101	77	1647	83454	1647	68975382
699	280	3998	-306	-982	-9092	-63	101	77	1648	83483	1648	68975382
687	293	4016	-307	-983	-9072	-71	105	77	1649	83577	1649	68975388
703	305	3997	-307	-985	-9075	-71	105	77	1650	83604	1650	68975389
703	305	3962	-309	-974	-9053	-71	105	77	1651	83633	1651	68975394
719	280	3979	-308	-977	-9058	-69	107	75	1652	83727	1652	68975395
686	259	3994	-309	-979	-9072	-69	107	75	1653	83754	1653	68975400
701	274	3981	-308	-975	-9073	-69	107	75	1654	83783	1654	68975401
697	287	3956	-306	-979	-9093	-73	113	79	1655	83877	1655	68975401
707	274	3970	-305	-979	-9080	-73	113	79	1656	83904	1656	68975407
714	271	4003	-311	-985	-9070	-73	113	79	1657	83933	1657	68975407
718	275	4004	-311	-980	-9087	-64	118	82	1658	84027	1658	68975413
716	275	3980	-311	-978	-9082	-64	118	82	1659	84054	1659	68975413
698	290	4024	-308	-977	-9051	-64	118	82	1660	84083	1660	68975414
694	280	4002	-311	-975	-9076	-74	120	76	1661	84177	1661	68975419
679	297	3983	-314	-976	-9101	-74	120	76	1662	84204	1662	68975420
711	280	4002	-312	-982	-9093	-74	120	76	1663	84233	1663	68975427
709	268	3985	-312	-977	-9071	-74	120	78	1664	84327	1664	68975427
734	271	3968	-310	-977	-9079	-74	120	78	1665	84354	1665	68975428
692	298	3976	-307	-980	-9116	-74	120	78	1666	84383	1666	68975433
689	293	3973	-309	-971	-9105	-77	131	79	1667	84477	1667	68975434
688	275	4000	-312	-975	-9114	-77	131	79	1668	84504	1668	68975440
694	273	4009	-314	-977	-9083	-77	131	79	1669	84533	1669	68975442
718	269	4006	-316	-982	-9062	-70	126	76	1670	84627	1670	68975443
717	264	3978	-313	-986	-9093	-70	126	76	1671	84654	1671	68975446
714	263	4012	-308	-975	-9102	-70	126	76	1672	84683	1672	68975446
726	274	3994	-309	-977	-9090	-72	134	86	1673	84777	1673	68975452
733	270	3976	-308	-980	-9095	-72	134	86	1674	84804	1674	68975453
681	287	3986	-309	-974	-9081	-72	134	86	1675	84833	1675	68975453
698	288	3971	-309	-975	-9059	-74	136	80	1676	84927	1676	68975459
700	280	3980	-311	-976	-9086	-74	136	80	1677	84954	1677	68975460
695	265	3989	-308	-984	-9077	-74	136	80	1678	84983	1678	68975466
706	285	3975	-305	-977	-9072	-72	138	84	1679	85077	1679	68975466
699	287	3956	-312	-976	-9082	-72	138	84	1680	85104	1680	68975471
687	283	3997	-312	-983	-9119	-72	138	84	1681	85133	1681	68975472
699	261	3988	-310	-989	-9090	-79	143	81	1682	85227	1682	68975472
722	269	3983	-314	-985	-9083	-79	143	81	1683	85254	1683	68975478
710	275	3987	-310	-982	-9091	-79	143	81	1684	85283	1684	68975478
691	269	4003	-312	-980	-9088	-74	146	84	1685	85377	1685	68975484
689	281	4012	-308	-979	-9086	-74	146	84	1686	85404	1686	68975484
698	257	3980	-312	-984	-9100	-74	146	84	1687	85433	1687	68975485
692	257	3991	-314	-982	-9067	-74	150	88	1688	85527	1688	68975490
696	251	4007	-312	-984	-9082	-74	150	88	1689	85554	1689	68975491
708	273	3977	-309	-971	-9061	-74	150	88	1690	85583	1690	68975498
707	274	3966	-309	-971	-9079	-77	155	85	1691	85677	1691	68975499
699	270	3966	-310	-975	-9098	-77	155	85	1692	85704	1692	68975499
718	241	3983	-314	-977	-9111	-77	155	85	1693	85733	1693	68975502
705	262	3970	-309	-983	-9089	-72	162	86	1694	85821	1694	68975503
691	263	3979	-308	-975	-9073	-72	162	86	1695	85832	1695	68975510
704	263	4013	-308	-978	-9077	-72	162	86	1696	85950	1696	68975514
706	255	4011	-313	-985	-9085	-72	162	86	1697	86068	1697	68975515
700	261	4021	-312	-982	-9095	-80	156	88	1698	86162	1698	68975516
705	264	3998	-308	-978	-9105	-80	156	88	1699	86172	1699	68975517
715	260	3999	-311	-978	-9081	-80	156	88	1700	86290	1700	68975520
697	273	4016	-309	-979	-9098	-80	156	88	1701	86408	1701	68975525
686	284	4004	-310	-975	-9080	-65	165	85	1702	86502	1702	68975527
700	271	4007	-312	-982	-9073	-65	165	85	1703	86512	1703	68975527
727	261	3980	-309	-982	-9074	-65	165	85	1704	86630	1704	68975529
726	278	3985	-306	-979	-9075	-65	165	85	1705	86748	1705	68975532
712	274	3990	-308	-975	-9093	-67	175	85	1706	86841	1706	68975533
689	270	3996	-311	-976	-9078	-67	175	85	1707	86852	1707	68975533
687	277	4005	-311	-980	-9100	-67	175	85	1708	86970	1708	68975537
696	267	4001	-313	-984	-9089	-67	175	85	1709	87088	1709	68975537
718	263	4010	-311	-987	-9075	-58	176	90	1710	87182	1710	68975542
706	259	3980	-308	-982	-9066	-58	176	90	1711	87192	1711	68975542
692	259	3988	-307	-977	-9055	-58	176	90	1712	87310	1712	68975548
690	259	4006	-308	-977	-9072	-58	176	90	1713	87427	1713	68975548
692	251	3992	-306	-976	-9066	-64	182	86	1714	87521	1714	68975548
686	265	3991	-309	-976	-9085	-64	182	86	1715	87531	1715	68975552
685	271	3970	-311	-983	-9103	-64	182	86	1716	87649	1716	68975552
715	260	3988	-314	-980	-9075	-64	182	86	1717	87767	1717	68975559
708	255	4000	-312	-980	-9096	-61	183	91	1718	87861	1718	68975559
708	244	3982	-312	-982	-9075	-61	183	91	1719	87871	1719	68975560
715	252	3992	-312	-980	-9077	-61	183	91	1720	87989	1720	68975563
718	269	3978	-311	-974	-9095	-61	183	91	1721	88107	1721	68975563
715	265	3972	-310	-976	-9099	-60	188	88	1722	88200	1722	68975569
690	272	3956	-308	-980	-9097	-60	188	88	1723	88211	1723	68975569
712	264	3980	-314	-981	-9093	-60	188	88	1724	88323	1724	68975570
719	264	3975	-315	-982	-9075	-60	188	88	1725	88441	1725	68975576
731	263	4012	-311	-982	-9094	-58	188	90	1726	88535	1726	68975576
711	254	3980	-310	-979	-9119	-58	188	90	1727	88545	1727	68975583
702	267	3987	-309	-977	-9089	-58	188	90	1728	88662	1728	68975584
694	270	3992	-308	-978	-9098	-51	203	95	1729	88766	1729	68975584
694	250	4008	-311	-981	-9092	-51	203	95	1730	88795	1730	68975587
714	256	4018	-310	-984	-9077	-51	203	95	1731	88913	1731	68975587
705	258	3983	-308	-979	-9095	-51	203	95	1732	89031	1732	68975593
696	255	3983	-309	-981	-9085	-49	193	91	1733	89125	1733	68975594
692	263	3970	-307	-984	-9086	-49	193	91	1734	89135	1734	68975594
697	267	4015	-308	-983	-9072	-49	193	91	1735	89253	1735	68975600
720	271	3998	-315	-983	-9088	-49	193	91	1736	89371	1736	68975602
714	270	4005	-318	-989	-9080	-47	205	93	1737	89465	1737	68975603
712	266	4007	-311	-984	-9079	-47	205	93	1738	89475	1738	68975604
701	269	3966	-311	-984	-9064	-47	205	93	1739	89593	1739	68975610
693	262	3974	-313	-986	-9051	-47	205	93	1740	89711	1740	68975611
711	259	3972	-315	-983	-9083	-46	200	94	1741	89805	1741	68975611
713	244	3986	-313	-980	-9048	-46	200	94	1742	89815	1742	68975614
696	251	4007	-311	-982	-9090	-46	200	94	1743	89933	1743	68975615
694	281	3998	-309	-980	-9061	-46	200	94	1744	90051	1744	68975623
707	296	3976	-309	-978	-9071	-41	211	95	1745	90167	1745	68975623
716	265	3981	-310	-986	-9073	-41	211	95	1746	90196	1746	68975624
715	230	3982	-311	-977	-9092	-41	211	95	1747	90314	1747	68975627
720	231	3980	-308	-978	-9046	-41	211	95	1748	90431	1748	68975627
704	245	3983	-307	-979	-9092	-36	210	94	1749	90525	1749	68975634
703	243	3983	-308	-974	-9109	-36	210	94	1750	90535	1750	68975635
713	245	3990	-309	-976	-9127	-36	210	94	1751	90653	1751	68975635
698	254	3988	-310	-983	-9091	-36	210	94	1752	90771	1752	68975643
695	247	3992	-314	-984	-9075	-39	215	95	1753	90865	1753	68975644
702	244	3974	-308	-977	-9070	-39	215	95	1754	90898	1754	68975647
686	259	3983	-309	-976	-9080	-39	215	95	1755	90927	1755	68975647
695	263	3980	-310	-969	-9099	-31	215	93	1756	91021	1756	68975648
723	264	3969	-310	-976	-9090	-31	215	93	1757	91048	1757	68975653
723	257	3999	-315	-983	-9104	-31	215	93	1758	91077	1758	68975654
714	259	3998	-315	-979	-9105	-29	221	97	1759	91171	1759	68975659
715	256	3974	-311	-985	-9085	-29	221	97	1760	91198	1760	68975660
713	277	3992	-313	-978	-9091	-29	221	97	1761	91227	1761	68975662
698	246	3972	-309	-976	-9108	-25	217	95	1762	91321	1762	68975665
706	247	3982	-310	-985	-9115	-25	217	95	1763	91348	1763	68975666
703	254	3993	-313	-979	-9084	-25	217	95	1764	91377	1764	68975673
711	254	4003	-311	-981	-9060	-14	224	100	1765	91471	1765	68975673
715	262	3982	-310	-985	-9064	-14	224	100	1766	91498	1766	68975673
725	259	3974	-310	-974	-9087	-14	224	100	1767	91527	1767	68975679
723	263	3986	-312	-977	-9066	-16	222	100	1768	91621	1768	68975680
725	255	3998	-310	-974	-9079	-16	222	100	1769	91648	1769	68975685
694	265	4002	-311	-970	-9110	-16	222	100	1770	91677	1770	68975686
706	263	4002	-311	-976	-9093	-12	224	96	1771	91771	1771	68975692
715	263	3989	-311	-980	-9081	-12	224	96	1772	91798	1772	68975692
722	245	3988	-316	-985	-9089	-12	224	96	1773	91827	1773	68975693
727	240	3984	-308	-982	-9094	-13	225	95	1774	91921	1774	68975698
724	243	3983	-308	-973	-9100	-13	225	95	1775	91948	1775	68975699
679	244	3984	-306	-979	-9157	-13	225	95	1776	91977	1776	68975705
696	246	3991	-306	-977	-9114	-3	237	95	1777	92071	1777	68975706
723	252	3993	-308	-979	-9093	-3	237	95	1778	92098	1778	68975707
721	242	3995	-309	-987	-9096	-3	237	95	1779	92127	1779	68975712
724	249	3992	-310	-980	-9076	-4	226	102	1780	92221	1780	68975714
709	250	3980	-312	-978	-9092	-4	226	102	1781	92248	1781	68975718
731	241	4004	-313	-981	-9084	-4	226	102	1782	92277	1782	68975719
704	251	3998	-311	-980	-9075	6	232	96	1783	92371	1783	68975719
695	255	3999	-307	-982	-9095	6	232	96	1784	92398	1784	68975724
708	269	3995	-309	-981	-9108	6	232	96	1785	92427	1785	68975725
713	268	3999	-309	-978	-9093	2	234	100	1786	92521	1786	68975731
722	256	3971	-308	-981	-9095	2	234	100	1787	92548	1787	68975732
720	250	3975	-313	-975	-9097	2	234	100	1788	92577	1788	68975732
720	249	3977	-312	-983	-9096	12	238	100	1789	92671	1789	68975737
722	251	3994	-311	-987	-9090	12	238	100	1790	92698	1790	68975737
726	251	4004	-314	-979	-9097	12	238	100	1791	92727	1791	68975744
725	246	4011	-315	-988	-9067	10	234	98	1792	92821	1792	68975745
718	242	3985	-314	-985	-9070	10	234	98	1793	92848	1793	68975745
741	230	3995	-310	-980	-9068	10	234	98	1794	92877	1794	68975750
721	231	3996	-311	-977	-9086	16	234	104	1795	92971	1795	68975751
714	230	3998	-308	-979	-9090	16	234	104	1796	92998	1796	68975782
719	237	3983	-309	-983	-9075	16	234	104	1797	93021	1797	68975793
727	250	3984	-311	-982	-9078	23	233	107	1798	93119	1798	68975798
744	263	3994	-310	-979	-9052	23	233	107	1799	93148	1799	68975799
733	259	3988	-307	-979	-9092	23	233	107	1800	93266	1800	68975799
710	246	3978	-311	-982	-9097	23	233	107	1801	93384	1801	68975799
700	237	3996	-311	-981	-9097	27	235	103	1802	93478	1802	68975800
706	250	3983	-311	-976	-9081	27	235	103	1803	93488	1803	68975800
721	260	3992	-308	-979	-9087	27	235	103	1804	93606	1804	68975800
733	243	3988	-312	-985	-9086	27	235	103	1805	93724	1805	68975801
726	246	3985	-312	-982	-9092	27	235	95	1806	93818	1806	68975801
722	245	3987	-310	-979	-9115	27	235	95	1807	93828	1807	68975801
724	250	3996	-313	-984	-9096	27	235	95	1808	93946	1808	68975801
728	252	3999	-314	-980	-9132	27	235	95	1809	94064	1809	68975802
729	252	3975	-311	-980	-9061	34	238	100	1810	94158	1810	68975802
732	243	3976	-310	-984	-9071	34	238	100	1811	94168	1811	68975802
741	236	3985	-315	-990	-9060	34	238	100	1812	94286	1812	68975802
743	252	3979	-314	-984	-9088	34	238	100	1813	94404	1813	68975803
742	254	3965	-314	-984	-9081	41	231	107	1814	94520	1814	68975803
709	246	3985	-311	-979	-9087	41	231	107	1815	94549	1815	68975803
705	254	3981	-307	-981	-9081	41	231	107	1816	94667	1816	68975804
719	252	4002	-309	-979	-9098	41	231	107	1817	94785	1817	68975804
714	250	4011	-313	-979	-9078	48	238	104	1818	94879	1818	68975808
726	258	3996	-315	-983	-9096	48	238	104	1819	94889	1819	68975808
725	254	3954	-309	-987	-9070	48	238	104	1820	95007	1820	68975808
721	250	3965	-308	-982	-9105	48	238	104	1821	95125	1821	68975814
732	243	3962	-310	-975	-9090	51	227	107	1822	95219	1822	68975814
712	236	4001	-312	-980	-9090	51	227	107	1823	95229	1823	68975820
729	234	3986	-311	-978	-9083	51	227	107	1824	95347	1824	68975820
715	246	3972	-308	-975	-9072	51	227	107	1825	95465	1825	68975821
711	241	3957	-307	-979	-9079	57	229	109	1826	95559	1826	68975824
720	243	3952	-311	-976	-9102	57	229	109	1827	95569	1827	68975824
716	243	3981	-311	-969	-9094	57	229	109	1828	95687	1828	68975833
716	249	3995	-315	-978	-9059	57	229	109	1829	95805	1829	68975833
716	238	3974	-311	-982	-9092	58	230	108	1830	95921	1830	68975836
735	251	3972	-311	-979	-9086	58	230	108	1831	95950	1831	68975837
737	251	3995	-310	-978	-9093	58	230	108	1832	96068	1832	68975837
721	266	3958	-311	-978	-9091	58	230	108	1833	96186	1833	68975844
728	272	3964	-312	-981	-9092	63	229	105	1834	96280	1834	68975845
722	262	3950	-315	-983	-9082	63	229	105	1835	96285	1835	68975850
737	258	3996	-314	-983	-9090	63	229	105	1836	96403	1836	68975850
738	268	3997	-312	-980	-9093	63	229	105	1837	96520	1837	68975851
729	263	3964	-310	-980	-9079	72	226	108	1838	96624	1838	68975856
720	259	3974	-308	-983	-9066	72	226	108	1839	96653	1839	68975857
735	254	3975	-311	-987	-9089	72	226	108	1840	96771	1840	68975860
743	247	3985	-314	-982	-9099	72	226	108	1841	96889	1841	68975860
745	244	3989	-312	-975	-9079	76	218	116	1842	96983	1842	68975861
725	245	4003	-310	-978	-9092	76	218	116	1843	96993	1843	68975868
722	238	3988	-309	-980	-9084	76	218	116	1844	97111	1844	68975868
733	241	3975	-308	-977	-9096	76	218	116	1845	97229	1845	68975871
736	257	3980	-308	-981	-9064	77	225	107	1846	97323	1846	68975872
736	264	3976	-306	-979	-9078	77	225	107	1847	97333	1847	68975872
742	272	3974	-307	-974	-9099	77	225	107	1848	97451	1848	68975879
735	266	3957	-308	-978	-9107	77	225	107	1849	97563	1849	68975880
738	271	3973	-313	-977	-9123	78	216	116	1850	97657	1850	68975883
736	258	3976	-321	-977	-9109	78	216	116	1851	97667	1851	68975883
737	247	3967	-317	-982	-9099	78	216	116	1852	97785	1852	68975883
722	248	3976	-313	-984	-9062	90	214	108	1853	97889	1853	68975892
735	255	3997	-309	-973	-9105	90	214	108	1854	97918	1854	68975892
722	259	4005	-315	-980	-9065	90	214	108	1855	98036	1855	68975896
744	253	3957	-315	-980	-9071	90	214	108	1856	98154	1856	68975896
741	248	3972	-313	-979	-9083	93	215	113	1857	98248	1857	68975903
750	243	3973	-309	-978	-9090	93	215	113	1858	98258	1858	68975903
741	246	3968	-305	-976	-9090	93	215	113	1859	98376	1859	68975904
736	245	3972	-305	-971	-9082	93	215	113	1860	98494	1860	68975907
746	237	3975	-311	-978	-9076	96	208	116	1861	98588	1861	68975907
743	259	3979	-309	-981	-9089	96	208	116	1862	98598	1862	68975914
752	271	4010	-310	-980	-9101	96	208	116	1863	98716	1863	68975915
735	260	3986	-311	-983	-9104	96	208	116	1864	98828	1864	68975916
742	253	3990	-311	-979	-9098	100	208	118	1865	98922	1865	68975918
742	255	3997	-308	-977	-9096	100	208	118	1866	98932	1866	68975922
748	262	4006	-310	-980	-9106	100	208	118	1867	99049	1867	68975927
736	247	3994	-311	-984	-9082	98	202	116	1868	99153	1868	68975928
730	254	3951	-305	-976	-9085	98	202	116	1869	99182	1869	68975929
731	267	3978	-316	-970	-9092	98	202	116	1870	99300	1870	68975933
741	250	3984	-316	-975	-9088	98	202	116	1871	99418	1871	68975933
742	233	3975	-311	-985	-9097	113	193	125	1872	99512	1872	68975938
740	239	3995	-308	-983	-9083	113	193	125	1873	99522	1873	68975938
739	232	3992	-305	-979	-9098	113	193	125	1874	99640	1874	68975939
734	244	3982	-304	-978	-9071	113	193	125	1875	99758	1875	68975944
727	274	3976	-306	-978	-9080	109	193	117	1876	99852	1876	68975945
746	284	3979	-312	-976	-9091	109	193	117	1877	99885	1877	68975951
736	262	3990	-316	-976	-9077	109	193	117	1878	99914	1878	68975951
745	246	3979	-317	-980	-9114	117	195	123	1879	100008	1879	68975951
752	242	3965	-312	-974	-9082	117	195	123	1880	100035	1880	68975957
738	256	4007	-306	-972	-9039	117	195	123	1881	100064	1881	68975957
736	262	3986	-308	-972	-9074	119	189	123	1882	100158	1882	68975960
736	262	3998	-314	-981	-9097	119	189	123	1883	100163	1883	68975961
742	241	3984	-308	-986	-9089	119	189	123	1884	100281	1884	68975968
735	254	3951	-308	-982	-9102	119	189	123	1885	100398	1885	68975968
741	262	3975	-310	-979	-9074	123	187	129	1886	100492	1886	68975969
759	255	3996	-308	-982	-9087	123	187	129	1887	100502	1887	68975972
749	259	3992	-308	-979	-9069	123	187	129	1888	100620	1888	68975973
744	256	3958	-311	-972	-9076	123	187	129	1889	100738	1889	68975981
759	265	3963	-308	-978	-9116	119	179	125	1890	100832	1890	68975983
754	258	3967	-308	-980	-9124	119	179	125	1891	100842	1891	68975985
762	248	3993	-311	-976	-9100	119	179	125	1892	100960	1892	68975986
745	238	3997	-308	-978	-9099	119	179	125	1893	101078	1893	68975987
