Accl X	Accl Y	Accl Z	Gyro X	Gyro Y	Gyro Z	Mag X	Mag Y	Mag Z	RPkt#	Rtime	LPkt#	Ltime
728	245	3996	-321	-982	-9065	-61	171	87	0	0	0	69037525
713	267	4006	-310	-974	-9078	-61	171	87	1	29	1	69037531
713	253	4020	-314	-975	-9048	-68	180	84	2	123	2	69037532
700	272	4003	-314	-982	-9064	-68	180	84	3	150	3	69037532
701	245	3986	-315	-985	-9071	-68	180	84	4	173	4	69037539
703	265	3975	-312	-975	-9056	-58	180	86	5	267	5	69037539
698	269	3976	-303	-975	-9054	-58	180	86	6	299	6	69037542
685	267	3985	-306	-977	-9086	-58	180	86	7	328	7	69037543
697	256	3983	-310	-984	-9084	-59	187	91	8	422	8	69037543
729	260	3990	-308	-987	-9085	-59	187	91	9	449	9	69037550
738	253	4013	-307	-980	-9067	-59	187	91	10	478	10	69037551
736	253	4028	-308	-976	-9053	-65	191	83	11	572	11	69037557
713	247	4023	-309	-974	-9082	-65	191	83	12	599	12	69037558
699	267	4024	-309	-974	-9093	-65	191	83	13	628	13	69037564
694	272	4004	-309	-983	-9075	-63	197	87	14	722	14	69037564
702	272	3976	-314	-971	-9084	-63	197	87	15	749	15	69037564
697	274	3981	-311	-971	-9083	-63	197	87	16	772	16	69037570
699	279	3997	-315	-971	-9065	-55	197	87	17	866	17	69037570
699	279	3988	-315	-980	-9082	-55	197	87	18	899	18	69037577
728	257	3981	-316	-983	-9080	-55	197	87	19	928	19	69037578
718	258	3983	-312	-976	-9089	-56	194	90	20	1022	20	69037578
733	251	3998	-311	-974	-9097	-56	194	90	21	1049	21	69037581
701	266	3988	-311	-983	-9064	-56	194	90	22	1078	22	69037582
716	261	3980	-313	-979	-9054	-55	201	91	23	1172	23	69037589
715	254	3987	-315	-988	-9067	-55	201	91	24	1199	24	69037589
721	246	4000	-315	-976	-9086	-55	201	91	25	1228	25	69037589
701	268	4001	-311	-973	-9109	-48	204	92	26	1322	26	69037596
684	267	4019	-310	-975	-9112	-48	204	92	27	1349	27	69037597
683	259	4013	-314	-975	-9084	-48	204	92	28	1378	28	69037606
694	257	4011	-313	-982	-9055	-46	202	94	29	1472	29	69037607
710	257	3992	-311	-988	-9031	-46	202	94	30	1499	30	69037608
707	251	3994	-309	-972	-9081	-46	202	94	31	1528	31	69037609
714	259	3967	-309	-970	-9079	-47	207	93	32	1622	32	69037609
707	265	3967	-312	-968	-9091	-47	207	93	33	1649	33	69037615
725	263	3987	-312	-976	-9056	-47	207	93	34	1678	34	69037615
722	256	3994	-314	-982	-9064	-41	207	89	35	1772	35	69037616
706	245	3979	-314	-982	-9066	-41	207	89	36	1799	36	69037622
707	256	4003	-313	-981	-9081	-41	207	89	37	1828	37	69037622
686	248	3998	-311	-979	-9092	-34	208	98	38	1922	38	69037629
669	245	4014	-311	-975	-9108	-34	208	98	39	1949	39	69037629
670	255	4012	-314	-983	-9080	-34	208	98	40	1978	40	69037635
700	246	4002	-315	-983	-9087	-33	221	99	41	2072	41	69037635
696	245	3998	-315	-978	-9101	-33	221	99	42	2099	42	69037635
721	244	3990	-314	-988	-9065	-33	221	99	43	2122	43	69037641
733	255	3988	-312	-984	-9103	-31	217	97	44	2216	44	69037641
708	255	3996	-309	-982	-9096	-31	217	97	45	2249	45	69037647
704	254	3989	-311	-982	-9083	-31	217	97	46	2278	46	69037647
704	250	3985	-312	-980	-9076	-26	216	98	47	2372	47	69037648
705	251	4014	-315	-986	-9053	-26	216	98	48	2399	48	69037653
705	242	4027	-310	-978	-9064	-26	216	98	49	2428	49	69037654
722	255	4045	-308	-974	-9075	-22	222	98	50	2522	50	69037660
702	253	4021	-308	-979	-9085	-22	222	98	51	2549	51	69037661
725	267	3998	-312	-973	-9104	-22	222	98	52	2578	52	69037661
718	250	4005	-317	-983	-9092	-20	226	96	53	2672	53	69037667
719	244	3994	-312	-984	-9063	-20	226	96	54	2699	54	69037667
750	270	4002	-311	-972	-9079	-20	226	96	55	2728	55	69037673
742	253	4005	-314	-978	-9074	-15	227	95	56	2822	56	69037674
733	247	3976	-312	-979	-9079	-15	227	95	57	2849	57	69037674
712	259	3989	-311	-975	-9120	-15	227	95	58	2878	58	69037680
712	262	3989	-309	-979	-9123	-12	224	100	59	2972	59	69037680
710	245	3968	-308	-976	-9087	-12	224	100	60	2999	60	69037687
700	260	3989	-310	-981	-9091	-12	224	100	61	3028	61	69037687
691	248	3964	-313	-984	-9071	-7	229	97	62	3122	62	69037688
704	229	3989	-314	-986	-9082	-7	229	97	63	3149	63	69037691
700	239	3989	-312	-979	-9107	-7	229	97	64	3178	64	69037691
697	251	4006	-316	-980	-9072	-1	233	101	65	3272	65	69037698
698	239	4001	-313	-977	-9086	-1	233	101	66	3299	66	69037699
719	252	4003	-313	-984	-9072	-1	233	101	67	3328	67	69037706
718	247	3999	-315	-977	-9084	2	230	100	68	3422	68	69037706
713	238	3990	-314	-976	-9107	2	230	100	69	3449	69	69037706
725	255	3986	-309	-975	-9100	2	230	100	70	3478	70	69037712
734	263	3994	-311	-970	-9097	4	232	96	71	3572	71	69037713
704	250	4002	-313	-984	-9117	4	232	96	72	3599	72	69037720
716	256	3984	-308	-974	-9058	4	232	96	73	3628	73	69037720
718	253	3988	-308	-978	-9054	8	226	102	74	3722	74	69037722
725	255	3990	-308	-984	-9113	8	226	102	75	3749	75	69037724
729	252	3998	-314	-978	-9102	8	226	102	76	3778	76	69037724
724	240	3986	-313	-981	-9101	9	227	103	77	3872	77	69037731
704	247	3992	-312	-984	-9139	9	227	103	78	3899	78	69037732
730	244	3999	-307	-975	-9065	9	227	103	79	3928	79	69037732
710	252	4003	-311	-978	-9067	12	234	102	80	4022	80	69037738
703	243	4001	-316	-975	-9100	12	234	102	81	4049	81	69037739
715	247	3986	-314	-984	-9116	12	234	102	82	4078	82	69037745
701	255	3996	-314	-983	-9100	20	234	100	83	4172	83	69037745
707	245	4010	-317	-984	-9103	20	234	100	84	4199	84	69037745
707	231	3964	-310	-986	-9100	20	234	100	85	4228	85	69037751
731	242	3988	-311	-982	-9083	24	238	100	86	4322	86	69037751
727	254	4014	-312	-982	-9083	24	238	100	87	4349	87	69037759
732	240	3986	-308	-987	-9109	24	238	100	88	4378	88	69037759
729	242	3980	-308	-979	-9087	26	234	100	89	4472	89	69037759
721	251	3988	-307	-975	-9107	26	234	100	90	4499	90	69037763
731	246	3995	-311	-983	-9086	26	234	100	91	4528	91	69037763
737	255	3993	-313	-979	-9104	29	231	105	92	4622	92	69037770
741	251	4001	-312	-981	-9106	29	231	105	93	4649	93	69037770
755	242	4005	-307	-976	-9086	29	231	105	94	4678	94	69037770
748	251	4009	-310	-974	-9085	31	235	105	95	4772	95	69037778
760	256	4015	-312	-975	-9078	31	235	105	96	4799	96	69037778
732	246	4006	-311	-979	-9118	31	235	105	97	4828	97	69037784
730	242	4006	-313	-980	-9106	41	241	105	98	4922	98	69037784
722	236	4005	-313	-981	-9085	41	241	105	99	4949	99	69037791
726	250	3999	-310	-974	-9075	41	241	105	100	4978	100	69037792
731	254	3998	-313	-980	-9097	45	231	107	101	5072	101	69037792
743	248	3992	-312	-983	-9105	45	231	107	102	5099	102	69037820
748	260	3994	-320	-976	-9098	45	231	107	103	5128	103	69037820
742	244	3989	-317	-980	-9091	45	237	105	104	5222	104	69037822
742	244	3980	-313	-977	-9091	45	237	105	105	5249	105	69037823
719	247	3993	-313	-984	-9063	45	237	105	106	5278	106	69037823
722	257	4013	-314	-983	-9092	50	226	108	107	5372	107	69037825
737	253	3999	-314	-977	-9103	50	226	108	108	5399	108	69037825
732	255	3997	-310	-976	-9093	50	226	108	109	5428	109	69037827
729	239	3977	-309	-978	-9102	53	233	103	110	5522	110	69037828
706	232	4002	-311	-979	-9065	53	233	103	111	5549	111	69037829
707	260	3983	-313	-985	-9067	53	233	103	112	5578	112	69037830
730	249	3977	-310	-981	-9098	56	230	100	113	5672	113	69037830
748	246	3981	-306	-981	-9099	56	230	100	114	5699	114	69037832
732	256	4003	-308	-978	-9063	56	230	100	115	5728	115	69037833
724	241	4011	-308	-974	-9095	68	230	106	116	5822	116	69037833
718	251	4014	-308	-976	-9092	68	230	106	117	5849	117	69037835
709	268	4014	-310	-972	-9066	68	230	106	118	5878	118	69037835
727	266	4017	-308	-974	-9089	69	227	107	119	5972	119	69037841
746	268	4013	-311	-974	-9092	69	227	107	120	5999	120	69037841
739	251	3987	-314	-979	-9084	69	227	107	121	6028	121	69037842
735	250	4011	-316	-982	-9104	73	229	105	122	6122	122	69037849
734	260	4001	-314	-983	-9098	73	229	105	123	6149	123	69037849
727	253	3981	-315	-974	-9072	73	229	105	124	6178	124	69037855
730	246	4006	-313	-977	-9070	68	220	108	125	6272	125	69037855
734	236	4007	-314	-980	-9101	68	220	108	126	6299	126	69037856
747	237	4018	-317	-979	-9120	68	220	108	127	6328	127	69037863
745	236	4011	-313	-981	-9118	76	226	114	128	6422	128	69037864
729	232	3981	-310	-980	-9102	76	226	114	129	6449	129	69037867
733	241	3994	-314	-981	-9077	76	226	114	130	6478	130	69037867
715	235	3975	-311	-977	-9060	86	218	110	131	6572	131	69037874
708	243	3988	-310	-980	-9061	86	218	110	132	6599	132	69037874
712	230	4003	-306	-982	-9112	86	218	110	133	6628	133	69037875
732	252	3990	-306	-977	-9108	84	222	112	134	6722	134	69037882
745	260	4006	-311	-978	-9104	84	222	112	135	6749	135	69037883
728	254	4022	-311	-981	-9104	84	222	112	136	6778	136	69037887
741	256	4030	-309	-979	-9102	90	214	112	137	6872	137	69037888
738	249	4012	-310	-980	-9112	90	214	112	138	6899	138	69037888
738	244	3994	-308	-977	-9091	90	214	112	139	6928	139	69037893
741	241	3987	-311	-977	-9091	86	214	116	140	7022	140	69037894
738	239	3970	-312	-980	-9122	86	214	116	141	7049	141	69037901
732	226	4004	-315	-974	-9092	86	214	116	142	7078	142	69037901
755	241	3997	-309	-979	-9051	99	213	111	143	7172	143	69037902
742	257	3985	-308	-975	-9072	99	213	111	144	7199	144	69037905
750	242	4005	-310	-975	-9133	99	213	111	145	7228	145	69037905
758	247	4007	-313	-980	-9103	101	207	121	146	7322	146	69037914
763	236	3996	-312	-979	-9106	101	207	121	147	7349	147	69037914
755	249	3995	-314	-975	-9097	101	207	121	148	7378	148	69037914
753	252	4006	-314	-979	-9073	107	203	117	149	7472	149	69037920
759	262	4005	-311	-980	-9069	107	203	117	150	7499	150	69037920
745	248	4002	-313	-980	-9072	107	203	117	151	7528	151	69037926
754	254	4024	-314	-979	-9077	106	198	120	152	7622	152	69037927
735	250	4005	-309	-981	-9099	106	198	120	153	7649	153	69037928
737	247	4010	-310	-988	-9095	106	198	120	154	7678	154	69037934
736	247	3996	-312	-981	-9069	124	194	122	155	7772	155	69037934
746	239	4004	-311	-984	-9078	124	194	122	156	7799	156	69037940
755	258	3997	-309	-983	-9081	124	194	122	157	7828	157	69037942
759	258	3987	-310	-974	-9075	114	190	128	158	7922	158	69037942
758	253	3983	-311	-975	-9069	114	190	128	159	7949	159	69037943
761	245	3975	-310	-984	-9079	114	190	128	160	7978	160	69037944
758	239	4005	-313	-982	-9042	118	192	118	161	8072	161	69037952
741	253	3987	-315	-986	-9070	118	192	118	162	8099	162	69037953
725	273	3971	-311	-974	-9070	118	192	118	163	8128	163	69037958
738	295	3983	-310	-983	-9092	120	180	126	164	8222	164	69037959
741	293	3992	-313	-985	-9085	120	180	126	165	8249	165	69037959
729	275	4007	-320	-978	-9075	120	180	126	166	8278	166	69037965
735	260	4000	-315	-979	-9086	128	188	128	167	8372	167	69037965
736	257	3972	-313	-986	-9080	128	188	128	168	8399	168	69037972
742	245	3985	-313	-978	-9061	128	188	128	169	8428	169	69037973
743	240	3989	-312	-984	-9097	123	177	131	170	8522	170	69037973
775	246	4000	-315	-983	-9084	123	177	131	171	8549	171	69037976
764	255	3977	-313	-984	-9081	123	177	131	172	8578	172	69037976
752	250	3986	-313	-980	-9089	131	169	131	173	8672	173	69037985
750	257	4000	-311	-972	-9057	131	169	131	174	8699	174	69037985
750	247	4003	-311	-984	-9072	131	169	131	175	8728	175	69037985
745	242	3984	-312	-985	-9085	124	170	132	176	8822	176	69037991
727	262	3954	-314	-981	-9089	124	170	132	177	8849	177	69037992
747	271	3995	-307	-978	-9096	124	170	132	178	8878	178	69037997
736	261	3961	-311	-974	-9093	134	166	136	179	8972	179	69037997
735	258	3964	-313	-976	-9059	134	166	136	180	8999	180	69037998
737	252	3994	-312	-983	-9069	134	166	136	181	9028	181	69038005
726	263	3976	-310	-975	-9078	126	160	132	182	9122	182	69038005
737	272	3956	-312	-979	-9076	126	160	132	183	9149	183	69038011
748	256	3990	-312	-972	-9087	126	160	132	184	9172	184	69038012
744	269	3983	-316	-971	-9087	137	151	153	185	9266	185	69038012
753	251	3989	-309	-984	-9050	137	151	153	186	9299	186	69038015
745	257	3991	-309	-976	-9055	137	151	153	187	9328	187	69038015
747	249	3975	-310	-972	-9058	130	150	142	188	9422	188	69038023
761	256	3968	-313	-977	-9069	130	150	142	189	9449	189	69038024
756	265	3962	-317	-975	-9086	130	150	142	190	9478	190	69038024
772	255	3980	-317	-981	-9082	131	147	149	191	9572	191	69038030
765	266	3982	-315	-981	-9081	131	147	149	192	9599	192	69038030
738	270	4000	-306	-979	-9087	131	147	149	193	9628	193	69038036
738	276	3987	-309	-981	-9084	132	138	144	194	9722	194	69038036
742	277	3989	-313	-974	-9105	132	138	144	195	9749	195	69038043
739	253	4000	-312	-980	-9100	132	138	144	196	9778	196	69038044
755	250	4000	-315	-980	-9102	121	137	155	197	9872	197	69038044
742	233	3987	-314	-981	-9117	121	137	155	198	9899	198	69038047
748	250	3967	-307	-983	-9101	121	137	155	199	9928	199	69038048
739	259	3962	-308	-974	-9087	127	129	145	200	10022	200	69038054
741	266	3971	-309	-971	-9093	127	129	145	201	10049	201	69038055
735	263	3998	-304	-982	-9094	127	129	145	202	10078	202	69038055
735	274	4011	-305	-976	-9097	114	128	162	203	10172	203	69038062
746	289	4017	-307	-979	-9097	114	128	162	204	10199	204	69038063
760	273	3994	-310	-974	-9079	114	128	162	205	10228	205	69038068
766	273	4002	-307	-972	-9080	127	117	145	206	10322	206	69038069
751	267	4014	-308	-978	-9074	127	117	145	207	10349	207	69038072
754	265	3974	-308	-980	-9099	127	117	145	208	10378	208	69038076
756	274	3966	-311	-981	-9099	115	119	157	209	10472	209	69038077
752	263	3959	-316	-986	-9111	115	119	157	210	10499	210	69038082
734	273	3994	-311	-975	-9097	115	119	157	211	10528	211	69038083
737	273	3984	-311	-980	-9072	113	105	147	212	10622	212	69038084
736	273	4011	-311	-983	-9060	113	105	147	213	10649	213	69038086
736	257	3992	-318	-980	-9083	113	105	147	214	10678	214	69038086
752	267	3976	-317	-982	-9070	109	115	153	215	10772	215	69038095
751	268	3988	-316	-976	-9089	109	115	153	216	10799	216	69038095
754	267	4001	-311	-982	-9103	109	115	153	217	10828	217	69038095
745	281	3994	-309	-983	-9067	101	103	147	218	10922	218	69038101
742	265	3991	-313	-976	-9066	101	103	147	219	10949	219	69038101
746	273	4001	-311	-982	-9084	101	103	147	220	10978	220	69038107
744	266	3983	-309	-977	-9064	96	106	158	221	11072	221	69038107
742	260	3991	-309	-975	-9070	96	106	158	222	11099	222	69038107
739	279	4006	-308	-979	-9056	96	106	158	223	11128	223	69038115
727	278	3996	-306	-980	-9058	96	98	148	224	11222	224	69038115
736	278	3994	-308	-978	-9057	96	98	148	225	11249	225	69038119
756	276	4003	-311	-983	-9084	96	98	148	226	11278	226	69038120
773	272	4003	-307	-976	-9097	85	97	149	227	11372	227	69038126
769	279	3993	-310	-977	-9096	85	97	149	228	11399	228	69038127
741	284	3978	-313	-970	-9067	85	97	149	229	11428	229	69038128
761	276	3974	-311	-973	-9082	90	94	144	230	11522	230	69038134
760	278	3965	-308	-979	-9078	90	94	144	231	11549	231	69038134
740	280	3992	-306	-974	-9068	90	94	144	232	11578	232	69038140
754	287	3987	-306	-979	-9070	81	93	143	233	11672	233	69038142
760	282	3999	-313	-984	-9077	81	93	143	234	11699	234	69038143
735	280	3977	-313	-970	-9098	81	93	143	235	11728	235	69038146
745	287	3975	-312	-979	-9091	80	86	140	236	11822	236	69038147
757	282	3989	-310	-975	-9078	80	86	140	237	11849	237	69038153
744	276	3966	-312	-973	-9076	80	86	140	238	11878	238	69038154
753	266	4016	-316	-979	-9067	76	84	138	239	11972	239	69038154
755	270	3988	-320	-984	-9072	76	84	138	240	11999	240	69038157
746	270	3978	-315	-979	-9077	76	84	138	241	12028	241	69038157
734	264	3979	-312	-974	-9089	81	83	141	242	12122	242	69038166
729	265	3981	-307	-971	-9094	81	83	141	243	12149	243	69038166
732	276	4004	-312	-982	-9080	81	83	141	244	12178	244	69038167
747	274	3997	-308	-977	-9094	71	77	123	245	12272	245	69038172
754	282	4014	-306	-977	-9088	71	77	123	246	12299	246	69038173
755	274	3988	-309	-982	-9072	71	77	123	247	12328	247	69038179
747	275	3992	-311	-979	-9077	65	81	137	248	12422	248	69038179
746	262	3987	-313	-979	-9088	65	81	137	249	12449	249	69038179
748	265	3980	-310	-978	-9090	65	81	137	250	12478	250	69038186
738	281	3992	-307	-975	-9078	67	73	123	251	12572	251	69038187
724	288	3987	-303	-981	-9089	67	73	123	252	12599	252	69038190
717	266	4000	-314	-977	-9117	67	73	123	253	12628	253	69038190
722	265	3983	-316	-974	-9099	69	83	133	254	12722	254	69038197
735	284	3976	-315	-977	-9075	69	83	133	255	12749	255	69038198
746	294	3999	-311	-975	-9070	69	83	133	256	12778	256	69038198
771	289	3985	-310	-979	-9071	65	73	125	257	12872	257	69038206
776	284	3985	-313	-975	-9084	65	73	125	258	12899	258	69038206
771	276	3981	-314	-977	-9087	65	73	125	259	12928	259	69038211
761	278	3970	-312	-986	-9090	60	78	130	260	13022	260	69038212
760	287	3960	-309	-979	-9095	60	78	130	261	13049	261	69038212
732	283	3976	-307	-978	-9086	60	78	130	262	13078	262	69038217
749	294	4004	-310	-978	-9060	59	69	113	263	13172	263	69038218
758	288	3986	-310	-972	-9078	59	69	113	264	13199	264	69038225
760	299	3992	-310	-982	-9112	59	69	113	265	13228	265	69038225
750	303	3989	-308	-980	-9103	62	64	118	266	13322	266	69038226
758	290	4003	-310	-979	-9118	62	64	118	267	13349	267	69038229
743	282	4002	-310	-981	-9123	62	64	118	268	13378	268	69038229
736	283	3999	-311	-980	-9099	50	64	118	269	13472	269	69038237
728	282	3988	-309	-980	-9073	50	64	118	270	13499	270	69038237
735	285	3986	-309	-980	-9107	50	64	118	271	13528	271	69038238
745	290	4001	-310	-975	-9082	46	64	122	272	13622	272	69038244
756	275	3997	-311	-977	-9114	46	64	122	273	13649	273	69038245
751	279	3997	-311	-977	-9073	46	64	122	274	13678	274	69038250
756	276	3993	-310	-978	-9040	36	60	114	275	13772	275	69038250
745	279	3991	-310	-980	-9059	36	60	114	276	13799	276	69038251
727	308	3984	-310	-979	-9073	36	60	114	277	13828	277	69038258
733	304	3964	-311	-980	-9059	50	58	114	278	13922	278	69038258
735	305	3965	-313	-979	-9073	50	58	114	279	13949	279	69038264
731	300	3983	-309	-974	-9082	50	58	114	280	13978	280	69038264
727	303	3975	-303	-981	-9063	38	58	108	281	14072	281	69038265
730	300	3994	-306	-981	-9087	38	58	108	282	14099	282	69038267
732	288	3984	-318	-981	-9067	38	58	108	283	14128	283	69038268
730	285	3983	-316	-988	-9087	48	62	106	284	14222	284	69038277
741	271	3978	-316	-984	-9115	48	62	106	285	14249	285	69038277
754	279	3992	-313	-983	-9068	48	62	106	286	14278	286	69038283
759	296	3966	-313	-982	-9075	38	56	106	287	14372	287	69038283
752	285	3985	-316	-979	-9077	38	56	106	288	14399	288	69038284
756	270	4019	-316	-985	-9058	38	56	106	289	14428	289	69038290
762	271	4006	-312	-978	-9068	40	52	104	290	14522	290	69038293
768	291	3986	-309	-978	-9101	40	52	104	291	14549	291	69038296
723	293	3987	-307	-978	-9075	40	52	104	292	14578	292	69038297
721	290	3997	-308	-977	-9112	34	56	108	293	14672	293	69038297
730	294	3995	-307	-981	-9089	34	56	108	294	14699	294	69038300
732	296	4004	-307	-980	-9087	34	56	108	295	14728	295	69038301
730	307	3984	-309	-982	-9096	29	53	101	296	14822	296	69038309
739	301	3981	-309	-982	-9093	29	53	101	297	14849	297	69038309
737	281	3984	-311	-975	-9088	29	53	101	298	14878	298	69038309
720	275	3987	-314	-978	-9120	26	58	102	299	14966	299	69038315
723	277	3980	-307	-978	-9093	26	58	102	300	14999	300	69038315
742	296	3974	-311	-977	-9073	26	58	102	301	15028	301	69038321
738	307	3970	-313	-984	-9111	26	54	96	302	15122	302	69038322
727	301	3965	-313	-984	-9081	26	54	96	303	15149	303	69038322
728	297	3983	-312	-973	-9071	26	54	96	304	15178	304	69038329
737	296	3992	-311	-978	-9085	21	55	99	305	15272	305	69038329
747	293	4025	-309	-976	-9075	21	55	99	306	15299	306	69038335
750	287	3978	-308	-979	-9071	21	55	99	307	15328	307	69038335
745	299	3997	-309	-984	-9079	20	46	90	308	15422	308	69038336
742	298	3967	-312	-984	-9069	20	46	90	309	15449	309	69038338
730	297	3965	-311	-984	-9105	20	46	90	310	15478	310	69038339
712	294	3987	-309	-982	-9119	15	53	93	311	15572	311	69038347
724	294	3995	-310	-976	-9120	15	53	93	312	15599	312	69038348
740	299	3987	-316	-986	-9087	15	53	93	313	15628	313	69038348
744	299	4008	-315	-978	-9089	15	53	91	314	15722	314	69038358
720	298	4008	-309	-977	-9080	15	53	91	315	15749	315	69038359
750	285	4014	-309	-976	-9094	15	53	91	316	15778	316	69038362
757	291	3986	-311	-972	-9096	7	53	85	317	15872	317	69038362
760	279	4004	-314	-977	-9120	7	53	85	318	15899	318	69038367
744	282	3987	-308	-980	-9071	7	53	85	319	15928	319	69038367
727	292	3971	-307	-975	-9069	10	50	86	320	16022	320	69038368
723	304	3978	-308	-978	-9093	10	50	86	321	16049	321	69038371
719	314	3974	-312	-973	-9093	10	50	86	322	16078	322	69038371
726	323	3992	-314	-981	-9066	1	49	85	323	16172	323	69038380
720	308	4012	-314	-983	-9092	1	49	85	324	16199	324	69038380
715	288	4002	-312	-979	-9113	1	49	85	325	16228	325	69038380
710	288	4007	-308	-980	-9094	5	57	79	326	16322	326	69038386
721	294	3998	-311	-985	-9095	5	57	79	327	16349	327	69038386
703	283	3978	-311	-987	-9101	5	57	79	328	16378	328	69038392
722	275	3958	-311	-987	-9095	5	55	81	329	16472	329	69038393
733	281	3964	-308	-980	-9115	5	55	81	330	16499	330	69038396
729	294	3988	-306	-982	-9101	5	55	81	331	16528	331	69038402
713	294	3972	-306	-985	-9062	3	51	79	332	16622	332	69038403
719	282	3977	-313	-981	-9076	3	51	79	333	16649	333	69038406
735	294	3990	-310	-987	-9103	3	51	79	334	16678	334	69038406
731	295	3995	-307	-977	-9088	3	49	83	335	16772	335	69038407
763	313	3987	-310	-974	-9083	3	49	83	336	16799	336	69038410
736	311	3996	-311	-981	-9101	3	49	83	337	16828	337	69038412
744	319	3982	-312	-976	-9069	1	57	79	338	16922	338	69038418
736	293	3980	-314	-980	-9078	1	57	79	339	16949	339	69038419
738	303	3985	-313	-979	-9097	1	57	79	340	16978	340	69038422
730	293	3987	-316	-977	-9122	-2	52	70	341	17072	341	69038425
744	287	3998	-314	-982	-9116	-2	52	70	342	17099	342	69038425
731	279	3966	-317	-981	-9116	-2	52	70	343	17128	343	69038431
720	280	3963	-311	-980	-9080	-2	58	76	344	17222	344	69038431
715	282	3985	-306	-979	-9059	-2	58	76	345	17249	345	69038431
720	297	3993	-315	-975	-9055	-2	58	76	346	17278	346	69038464
712	311	3991	-315	-981	-9089	-9	53	77	347	17372	347	69038477
727	274	3992	-312	-985	-9081	-9	53	77	348	17399	348	69038478
744	285	3986	-307	-982	-9105	-9	53	77	349	17428	349	69038479
742	294	3987	-307	-983	-9113	-11	63	69	350	17522	350	69038479
736	302	3979	-308	-974	-9120	-11	63	69	351	17549	351	69038479
734	279	3992	-309	-980	-9088	-11	63	69	352	17578	352	69038480
726	282	4005	-309	-985	-9117	-12	62	72	353	17672	353	69038481
717	291	4006	-309	-983	-9084	-12	62	72	354	17699	354	69038482
714	315	3996	-306	-983	-9112	-12	62	72	355	17728	355	69038482
711	299	3984	-310	-981	-9100	-9	63	65	356	17822	356	69038482
726	285	3974	-314	-982	-9075	-9	63	65	357	17849	357	69038482
720	281	3980	-314	-983	-9066	-9	63	65	358	17878	358	69038483
730	288	3996	-313	-977	-9081	-11	55	75	359	17972	359	69038483
731	301	4007	-310	-976	-9073	-11	55	75	360	17999	360	69038483
733	275	4001	-313	-982	-9126	-11	55	75	361	18028	361	69038483
739	293	4022	-318	-976	-9098	-9	59	71	362	18122	362	69038484
724	291	4006	-316	-982	-9075	-9	59	71	363	18149	363	69038484
736	294	4005	-309	-972	-9067	-9	59	71	364	18178	364	69038484
747	295	3994	-309	-975	-9084	-16	56	80	365	18272	365	69038490
728	291	3983	-314	-983	-9081	-16	56	80	366	18299	366	69038491
731	289	3987	-312	-974	-9091	-16	56	80	367	18328	367	69038492
726	294	3978	-313	-979	-9086	-21	61	75	368	18422	368	69038496
728	284	3968	-313	-971	-9111	-21	61	75	369	18449	369	69038496
720	304	3983	-311	-975	-9096	-21	61	75	370	18478	370	69038502
722	318	3986	-315	-980	-9087	-20	60	74	371	18572	371	69038502
720	302	3981	-316	-983	-9071	-20	60	74	372	18599	372	69038503
722	297	3972	-305	-983	-9106	-20	60	74	373	18628	373	69038510
717	299	3985	-303	-980	-9092	-21	61	75	374	18722	374	69038512
715	303	4002	-309	-975	-9094	-21	61	75	375	18749	375	69038513
712	277	3995	-308	-982	-9069	-21	61	75	376	18778	376	69038514
723	277	3986	-313	-984	-9077	-24	64	78	377	18872	377	69038514
726	301	3978	-313	-979	-9085	-24	64	78	378	18899	378	69038522
723	307	3964	-308	-980	-9081	-24	64	78	379	18928	379	69038522
727	302	3966	-309	-982	-9091	-33	65	75	380	19022	380	69038529
721	296	3963	-314	-979	-9061	-33	65	75	381	19049	381	69038529
703	296	3998	-312	-983	-9076	-33	65	75	382	19078	382	69038534
701	276	3970	-313	-980	-9080	-29	65	73	383	19172	383	69038535
697	288	3980	-315	-978	-9090	-29	65	73	384	19199	384	69038535
715	292	3987	-312	-981	-9113	-29	65	73	385	19228	385	69038542
710	296	4018	-308	-982	-9124	-29	65	77	386	19322	386	69038542
710	287	4005	-311	-985	-9116	-29	65	77	387	19349	387	69038548
712	274	4000	-313	-982	-9106	-29	65	77	388	19378	388	69038548
721	278	4002	-309	-979	-9109	-31	65	79	389	19472	389	69038549
723	280	3977	-311	-982	-9112	-31	65	79	390	19499	390	69038552
705	301	3997	-314	-978	-9114	-31	65	79	391	19528	391	69038553
718	289	4023	-312	-979	-9100	-36	70	78	392	19622	392	69038562
730	292	4000	-311	-979	-9125	-36	70	78	393	19649	393	69038562
696	287	4012	-308	-973	-9075	-36	70	78	394	19678	394	69038562
697	283	3991	-311	-978	-9087	-42	74	74	395	19772	395	69038567
722	269	3984	-313	-976	-9082	-42	74	74	396	19799	396	69038567
704	292	3972	-312	-977	-9085	-42	74	74	397	19828	397	69038574
703	283	3969	-308	-980	-9059	-44	76	74	398	19922	398	69038575
711	295	3970	-306	-979	-9078	-44	76	74	399	19949	399	69038576
689	295	3991	-312	-983	-9123	-44	76	74	400	19978	400	69038581
702	276	4004	-311	-984	-9074	-47	73	75	401	20072	401	69038582
715	274	3992	-307	-981	-9056	-47	73	75	402	20099	402	69038587
722	284	4012	-307	-984	-9081	-47	73	75	403	20128	403	69038588
716	297	4016	-308	-976	-9074	-50	78	72	404	20222	404	69038588
706	286	3990	-310	-973	-9108	-50	78	72	405	20249	405	69038594
702	280	4031	-313	-981	-9084	-50	78	72	406	20278	406	69038595
713	287	4017	-312	-978	-9068	-49	83	79	407	20372	407	69038600
722	286	4022	-309	-980	-9075	-49	83	79	408	20399	408	69038605
715	303	4006	-308	-973	-9098	-49	83	79	409	20428	409	69038607
723	280	4001	-312	-975	-9103	-48	78	80	410	20522	410	69038608
724	277	3981	-312	-982	-9078	-48	78	80	411	20549	411	69038609
716	295	3974	-311	-970	-9105	-48	78	80	412	20578	412	69038614
723	305	3972	-311	-972	-9091	-55	87	73	413	20672	413	69038615
716	313	3987	-308	-979	-9075	-55	87	73	414	20699	414	69038620
715	304	3976	-313	-974	-9070	-55	87	73	415	20728	415	69038622
689	285	3991	-314	-977	-9109	-54	90	78	416	20822	416	69038622
688	289	3969	-314	-976	-9097	-54	90	78	417	20849	417	69038623
696	274	3981	-312	-977	-9060	-54	90	78	418	20878	418	69038623
708	275	4007	-309	-976	-9099	-60	96	74	419	20972	419	69038632
698	283	4010	-314	-975	-9083	-60	96	74	420	20999	420	69038632
703	278	3995	-316	-983	-9057	-60	96	74	421	21028	421	69038632
704	270	3997	-316	-982	-9067	-62	94	74	422	21122	422	69038639
716	275	3997	-314	-978	-9071	-62	94	74	423	21149	423	69038639
697	293	3975	-310	-980	-9084	-62	94	74	424	21178	424	69038645
706	289	3976	-311	-972	-9098	-69	99	77	425	21272	425	69038645
700	282	3970	-312	-975	-9045	-69	99	77	426	21299	426	69038645
684	277	3982	-311	-983	-9077	-69	99	77	427	21328	427	69038652
700	284	3986	-308	-977	-9081	-57	99	75	428	21422	428	69038653
702	278	3996	-307	-977	-9070	-57	99	75	429	21449	429	69038659
691	265	4014	-312	-976	-9110	-57	99	75	430	21478	430	69038659
685	279	4000	-312	-975	-9103	-66	104	80	431	21572	431	69038659
695	266	3989	-310	-979	-9059	-66	104	80	432	21599	432	69038665
706	277	3990	-304	-976	-9061	-66	104	80	433	21628	433	69038665
709	271	3962	-312	-975	-9056	-65	103	79	434	21722	434	69038671
720	267	3988	-313	-982	-9080	-65	103	79	435	21749	435	69038672
719	274	3991	-310	-979	-9066	-65	103	79	436	21778	436	69038672
715	291	3987	-311	-979	-9058	-70	108	78	437	21872	437	69038677
713	283	3987	-311	-978	-9069	-70	108	78	438	21899	438	69038678
705	283	3998	-313	-978	-9086	-70	108	78	439	21928	439	69038685
710	283	3994	-315	-984	-9070	-66	112	80	440	22022	440	69038685
705	280	3984	-316	-981	-9066	-66	112	80	441	22049	441	69038685
708	284	3994	-313	-981	-9093	-66	112	80	442	22078	442	69038691
709	281	3996	-311	-980	-9096	-69	115	83	443	22172	443	69038691
723	288	4008	-311	-975	-9091	-69	115	83	444	22199	444	69038695
723	268	4004	-312	-990	-9100	-69	115	83	445	22228	445	69038695
714	284	3990	-317	-988	-9035	-67	119	79	446	22322	446	69038703
707	279	3992	-315	-978	-9044	-67	119	79	447	22349	447	69038704
726	270	3982	-309	-985	-9107	-67	119	79	448	22378	448	69038704
710	267	4004	-312	-978	-9080	-68	122	80	449	22472	449	69038710
686	284	4013	-313	-976	-9089	-68	122	80	450	22499	450	69038710
693	287	4007	-309	-979	-9089	-68	122	80	451	22528	451	69038717
700	300	3985	-307	-976	-9048	-74	126	78	452	22622	452	69038717
723	295	3965	-310	-979	-9059	-74	126	78	453	22649	453	69038718
729	270	3999	-308	-976	-9078	-74	126	78	454	22678	454	69038724
718	273	3980	-307	-978	-9082	-72	126	86	455	22772	455	69038724
712	275	3974	-310	-978	-9112	-72	126	86	456	22799	456	69038730
700	289	3970	-306	-973	-9074	-72	126	86	457	22828	457	69038730
713	276	3985	-313	-977	-9064	-73	137	79	458	22922	458	69038732
715	273	3991	-319	-981	-9088	-73	137	79	459	22949	459	69038736
691	244	3985	-316	-982	-9102	-73	137	79	460	22978	460	69038736
706	258	3991	-315	-981	-9084	-73	133	85	461	23072	461	69038742
711	251	4013	-310	-979	-9097	-73	133	85	462	23099	462	69038743
687	277	3988	-310	-972	-9107	-73	133	85	463	23128	463	69038743
696	284	4010	-313	-976	-9079	-74	140	86	464	23222	464	69038749
718	274	3993	-315	-981	-9073	-74	140	86	465	23249	465	69038749
713	262	3969	-316	-982	-9067	-74	140	86	466	23278	466	69038756
708	265	3975	-313	-977	-9088	-70	146	82	467	23372	467	69038756
709	272	3975	-310	-972	-9108	-70	146	82	468	23399	468	69038757
704	267	3978	-307	-979	-9095	-70	146	82	469	23422	469	69038762
705	265	3991	-315	-980	-9089	-74	148	88	470	23516	470	69038763
690	272	3999	-312	-986	-9074	-74	148	88	471	23549	471	69038766
684	279	3978	-311	-983	-9071	-74	148	88	472	23572	472	69038766
695	260	3993	-314	-979	-9094	-76	144	82	473	23666	473	69038775
698	268	3998	-308	-980	-9109	-76	144	82	474	23699	474	69038775
712	267	4004	-309	-977	-9109	-76	144	82	475	23728	475	69038776
710	259	4002	-307	-973	-9122	-74	162	86	476	23822	476	69038781
716	267	3998	-309	-982	-9086	-74	162	86	477	23849	477	69038781
702	267	4024	-315	-981	-9059	-74	162	86	478	23878	478	69038787
703	258	4002	-314	-980	-9077	-72	156	88	479	23972	479	69038788
698	256	4010	-313	-980	-9085	-72	156	88	480	23999	480	69038789
722	264	3991	-309	-973	-9084	-72	156	88	481	24028	481	69038795
714	275	3990	-307	-976	-9102	-70	168	88	482	24122	482	69038796
706	274	3979	-311	-975	-9074	-70	168	88	483	24149	483	69038803
720	274	3990	-313	-976	-9053	-70	168	88	484	24178	484	69038804
713	258	3987	-315	-981	-9075	-68	162	94	485	24272	485	69038805
720	276	3986	-310	-977	-9086	-68	162	94	486	24299	486	69038807
715	273	4020	-313	-980	-9095	-68	162	94	487	24328	487	69038808
708	269	4029	-311	-977	-9108	-66	174	90	488	24422	488	69038813
695	264	4018	-310	-977	-9091	-66	174	90	489	24449	489	69038814
716	258	4001	-309	-981	-9079	-66	174	90	490	24478	490	69038814
731	254	3991	-309	-979	-9071	-71	173	89	491	24572	491	69038820
722	262	3969	-310	-977	-9052	-71	173	89	492	24599	492	69038822
702	259	3999	-308	-980	-9094	-71	173	89	493	24628	493	69038827
714	251	3988	-312	-974	-9086	-67	181	85	494	24722	494	69038827
720	244	3992	-312	-971	-9108	-67	181	85	495	24749	495	69038828
709	265	3988	-304	-977	-9075	-67	181	85	496	24778	496	69038833
711	265	3990	-307	-977	-9082	-61	183	85	497	24872	497	69038834
700	258	3968	-312	-982	-9092	-61	183	85	498	24899	498	69038837
735	271	3977	-311	-979	-9104	-61	183	85	499	24928	499	69038837
724	275	3979	-312	-975	-9095	-58	184	88	500	25022	500	69038837
710	266	3998	-312	-977	-9106	-58	184	88	501	25049	501	69038846
701	266	3983	-310	-980	-9099	-58	184	88	502	25078	502	69038846
698	269	3988	-315	-986	-9068	-57	195	93	503	25172	503	69038852
705	251	3998	-313	-988	-9075	-57	195	93	504	25199	504	69038852
707	249	3990	-311	-974	-9095	-57	195	93	505	25228	505	69038860
716	260	3972	-309	-979	-9092	-60	192	88	506	25322	506	69038875
713	262	4004	-310	-976	-9109	-60	192	88	507	25349	507	69038875
699	250	4009	-312	-977	-9086	-60	192	88	508	25378	508	69038875
721	240	4024	-316	-978	-9072	-51	197	87	509	25472	509	69038876
734	253	4025	-315	-977	-9091	-51	197	87	510	25499	510	69038876
735	256	4008	-314	-981	-9099	-51	197	87	511	25528	511	69038877
710	265	3984	-310	-977	-9079	-56	198	92	512	25622	512	69038877
705	271	3988	-311	-969	-9111	-56	198	92	513	25649	513	69038878
718	254	3964	-318	-980	-9088	-56	198	92	514	25678	514	69038879
718	258	3962	-313	-975	-9070	-53	203	91	515	25772	515	69038884
718	250	3970	-311	-972	-9093	-53	203	91	516	25799	516	69038885
715	255	4016	-311	-978	-9101	-53	203	91	517	25828	517	69038885
726	245	4003	-314	-975	-9085	-48	200	86	518	25922	518	69038891
715	243	3996	-314	-976	-9118	-48	200	86	519	25949	519	69038891
704	245	4007	-308	-974	-9088	-48	200	86	520	25978	520	69038898
703	250	3993	-307	-970	-9072	-41	211	93	521	26072	521	69038899
705	256	3972	-310	-977	-9087	-41	211	93	522	26099	522	69038899
689	261	3983	-314	-978	-9059	-41	211	93	523	26128	523	69038905
716	248	3988	-312	-981	-9085	-40	210	96	524	26222	524	69038905
730	260	3984	-312	-980	-9070	-40	210	96	525	26249	525	69038911
717	269	4014	-309	-974	-9105	-40	210	96	526	26278	526	69038911
706	268	4011	-308	-977	-9085	-35	207	91	527	26372	527	69038911
705	260	4010	-314	-979	-9061	-35	207	91	528	26399	528	69038917
718	259	3962	-312	-978	-9068	-35	207	91	529	26428	529	69038917
714	248	3976	-312	-982	-9055	-38	214	94	530	26522	530	69038923
706	252	3980	-311	-981	-9062	-38	214	94	531	26549	531	69038924
679	261	4003	-311	-978	-9090	-38	214	94	532	26578	532	69038924
693	258	4006	-313	-977	-9085	-32	224	102	533	26672	533	69038930
698	253	4003	-311	-973	-9067	-32	224	102	534	26699	534	69038930
702	253	4000	-313	-985	-9061	-32	224	102	535	26728	535	69038937
700	257	3989	-313	-983	-9101	-25	221	97	536	26822	536	69038937
702	263	3994	-312	-977	-9066	-25	221	97	537	26849	537	69038943
718	243	4005	-313	-980	-9088	-25	221	97	538	26878	538	69038944
720	241	4009	-311	-978	-9104	-24	220	98	539	26972	539	69038945
717	257	3988	-310	-979	-9080	-24	220	98	540	26999	540	69038950
730	251	3983	-310	-975	-9078	-24	220	98	541	27028	541	69038952
734	254	3992	-313	-970	-9069	-21	223	101	542	27122	542	69038956
728	236	4005	-316	-978	-9077	-21	223	101	543	27149	543	69038957
714	252	4005	-315	-980	-9109	-21	223	101	544	27178	544	69038957
704	238	4009	-311	-982	-9131	-15	225	97	545	27272	545	69038963
701	249	4007	-309	-979	-9074	-15	225	97	546	27299	546	69038963
720	264	4014	-314	-976	-9052	-15	225	97	547	27328	547	69038970
732	265	4020	-314	-980	-9095	-16	228	98	548	27422	548	69038970
722	251	4001	-312	-983	-9093	-16	228	98	549	27449	549	69038971
721	247	3989	-310	-976	-9093	-16	228	98	550	27478	550	69038976
703	247	4009	-310	-980	-9090	-10	228	94	551	27572	551	69038976
692	249	4008	-310	-977	-9058	-10	228	94	552	27599	552	69038982
691	243	3991	-312	-982	-9092	-10	228	94	553	27628	553	69038982
694	251	4019	-312	-984	-9098	-1	227	101	554	27722	554	69038983
723	256	4000	-310	-974	-9070	-1	227	101	555	27749	555	69038988
713	244	3977	-308	-980	-9079	-1	227	101	556	27778	556	69038989
725	259	3996	-310	-981	-9116	-8	230	98	557	27872	557	69038995
733	255	4020	-315	-977	-9104	-8	230	98	558	27899	558	69038995
729	248	4011	-309	-983	-9095	-8	230	98	559	27928	559	69038995
728	253	3990	-311	-978	-9070	3	233	105	560	28022	560	69039002
715	250	3961	-311	-977	-9075	3	233	105	561	28049	561	69039003
720	249	3981	-308	-977	-9091	3	233	105	562	28078	562	69039008
722	254	3966	-309	-976	-9068	4	230	100	563	28172	563	69039013
714	252	3970	-311	-978	-9086	4	230	100	564	28199	564	69039014
703	246	3991	-308	-976	-9078	4	230	100	565	28228	565	69039015
719	258	3992	-310	-978	-9060	5	233	101	566	28322	566	69039015
720	253	3989	-312	-988	-9084	5	233	101	567	28349	567	69039022
721	246	3957	-310	-979	-9084	5	233	101	568	28378	568	69039023
720	250	3976	-309	-975	-9089	13	229	101	569	28472	569	69039027
722	269	3990	-308	-975	-9093	13	229	101	570	28499	570	69039027
704	263	4005	-313	-970	-9076	13	229	101	571	28528	571	69039027
706	258	4018	-313	-980	-9054	16	234	100	572	28622	572	69039033
719	252	4005	-314	-980	-9056	16	234	100	573	28649	573	69039034
716	242	3979	-313	-981	-9081	16	234	100	574	28672	574	69039041
729	243	3985	-307	-980	-9067	14	232	110	575	28770	575	69039041
718	254	4002	-312	-974	-9088	14	232	110	576	28799	576	69039041
712	248	4013	-312	-985	-9090	14	232	110	577	28917	577	69039045
728	229	3981	-313	-977	-9090	14	232	110	578	29035	578	69039045
726	221	3981	-311	-978	-9076	21	235	107	579	29129	579	69039052
706	231	3977	-309	-981	-9094	21	235	107	580	29139	580	69039053
726	237	3960	-308	-976	-9072	21	235	107	581	29257	581	69039053
740	233	3975	-311	-976	-9099	21	235	107	582	29374	582	69039059
728	226	3980	-312	-984	-9105	32	232	104	583	29468	583	69039059
726	247	3984	-312	-974	-9093	32	232	104	584	29501	584	69039062
722	256	3985	-309	-975	-9075	32	232	104	585	29530	585	69039063
714	267	4000	-307	-980	-9083	35	231	99	586	29624	586	69039063
710	267	4007	-308	-978	-9085	35	231	99	587	29651	587	69039072
720	237	3996	-313	-982	-9076	35	231	99	588	29680	588	69039074
744	236	3996	-314	-980	-9079	35	229	109	589	29774	589	69039100
736	252	4004	-311	-974	-9082	35	229	109	590	29801	590	69039100
719	248	3980	-310	-984	-9082	35	229	109	591	29830	591	69039102
730	256	3976	-311	-980	-9080	38	236	98	592	29924	592	69039102
708	236	3974	-312	-973	-9074	38	236	98	593	29951	593	69039103
728	247	4007	-307	-978	-9082	38	236	98	594	29980	594	69039105
719	256	4005	-311	-972	-9105	51	235	105	595	30074	595	69039105
722	254	3992	-310	-973	-9095	51	235	105	596	30101	596	69039107
740	248	3990	-310	-977	-9087	51	235	105	597	30130	597	69039107
738	246	3983	-311	-975	-9090	44	232	102	598	30224	598	69039107
729	256	4003	-313	-973	-9066	44	232	102	599	30251	599	69039111
734	246	4024	-307	-973	-9089	44	232	102	600	30280	600	69039111
746	249	4011	-314	-968	-9069	48	228	106	601	30374	601	69039112
738	252	4019	-315	-974	-9072	48	228	106	602	30401	602	69039112
734	241	4005	-314	-975	-9068	48	228	106	603	30430	603	69039113
735	264	3995	-311	-978	-9088	63	231	109	604	30524	604	69039116
734	254	3981	-309	-977	-9079	63	231	109	605	30551	605	69039117
731	261	3970	-312	-974	-9087	63	231	109	606	30580	606	69039124
738	258	3987	-312	-980	-9119	59	229	105	607	30674	607	69039124
730	244	3990	-314	-979	-9091	59	229	105	608	30701	608	69039125
723	248	4013	-310	-976	-9068	59	229	105	609	30730	609	69039132
716	250	4006	-306	-979	-9090	67	227	107	610	30824	610	69039132
725	252	4014	-308	-976	-9069	67	227	107	611	30851	611	69039137
752	252	3989	-309	-981	-9076	67	227	107	612	30880	612	69039137
755	257	3972	-309	-982	-9112	70	224	106	613	30974	613	69039137
759	263	3997	-310	-975	-9090	70	224	106	614	31001	614	69039142
747	252	3977	-314	-978	-9088	70	224	106	615	31030	615	69039143
737	247	3989	-315	-975	-9096	79	225	113	616	31124	616	69039148
733	249	3986	-312	-976	-9082	79	225	113	617	31151	617	69039149
752	249	3984	-310	-978	-9082	79	225	113	618	31180	618	69039149
740	242	3982	-311	-971	-9123	77	223	111	619	31274	619	69039156
739	244	3979	-313	-975	-9113	77	223	111	620	31301	620	69039157
734	253	3989	-314	-979	-9094	77	223	111	621	31330	621	69039162
735	234	3966	-315	-975	-9083	82	222	110	622	31424	622	69039163
721	234	3998	-314	-983	-9058	82	222	110	623	31451	623	69039168
728	246	4003	-306	-980	-9099	82	222	110	624	31480	624	69039169
722	266	4010	-304	-979	-9133	84	218	110	625	31574	625	69039169
727	269	4022	-308	-983	-9084	84	218	110	626	31601	626	69039175
728	254	4000	-313	-971	-9111	84	218	110	627	31630	627	69039175
725	257	4001	-314	-976	-9106	91	219	115	628	31724	628	69039181
716	262	4006	-309	-977	-9094	91	219	115	629	31751	629	69039181
732	258	4016	-307	-975	-9098	91	219	115	630	31780	630	69039182
742	270	4018	-307	-982	-9079	101	209	109	631	31874	631	69039187
747	262	4008	-308	-982	-9085	101	209	109	632	31901	632	69039188
750	258	3991	-313	-976	-9078	101	209	109	633	31930	633	69039194
736	264	3990	-314	-972	-9094	98	206	114	634	32024	634	69039195
748	238	3986	-317	-967	-9121	98	206	114	635	32051	635	69039195
734	244	3983	-314	-986	-9077	98	206	114	636	32080	636	69039201
737	235	3999	-313	-984	-9067	106	204	116	637	32174	637	69039202
744	233	4002	-315	-975	-9111	106	204	116	638	32201	638	69039207
730	260	3979	-312	-982	-9105	106	204	116	639	32230	639	69039207
735	247	4000	-315	-977	-9084	106	202	116	640	32324	640	69039208
747	249	4014	-315	-980	-9094	106	202	116	641	32351	641	69039213
755	245	3976	-314	-980	-9075	106	202	116	642	32380	642	69039214
751	246	3987	-313	-976	-9069	118	192	118	643	32474	643	69039220
738	248	4001	-309	-981	-9102	118	192	118	644	32501	644	69039220
743	264	4015	-310	-973	-9115	118	192	118	645	32530	645	69039220
746	254	4004	-311	-974	-9094	110	198	124	646	32624	646	69039227
737	243	4001	-318	-978	-9083	110	198	124	647	32651	647	69039227
734	253	4008	-310	-977	-9073	110	198	124	648	32680	648	69039233
751	249	3995	-312	-977	-9060	115	187	119	649	32774	649	69039234
737	252	3986	-308	-983	-9069	115	187	119	650	32801	650	69039234
721	258	3986	-311	-977	-9103	115	187	119	651	32830	651	69039240
735	244	4002	-314	-985	-9093	114	188	126	652	32924	652	69039240
748	242	4010	-314	-980	-9108	114	188	126	653	32951	653	69039246
738	257	4000	-308	-977	-9081	114	188	126	654	32980	654	69039246
746	269	3996	-310	-979	-9097	130	188	122	655	33074	655	69039252
743	268	3974	-310	-977	-9092	130	188	122	656	33101	656	69039252
760	253	4016	-312	-978	-9084	130	188	122	657	33130	657	69039253
762	257	3991	-309	-977	-9098	116	180	126	658	33224	658	69039258
752	268	3984	-313	-977	-9099	116	180	126	659	33251	659	69039259
740	253	3979	-310	-980	-9061	116	180	126	660	33280	660	69039266
746	255	3997	-313	-981	-9072	129	177	131	661	33374	661	69039266
752	258	4008	-315	-977	-9060	129	177	131	662	33401	662	69039267
739	251	4002	-309	-975	-9094	129	177	131	663	33430	663	69039272
739	262	3978	-309	-967	-9090	120	174	132	664	33524	664	69039273
744	263	3978	-314	-974	-9118	120	174	132	665	33551	665	69039278
763	242	3985	-316	-979	-9115	120	174	132	666	33580	666	69039279
758	246	4004	-315	-972	-9121	136	164	132	667	33674	667	69039279
752	249	4012	-311	-979	-9086	136	164	132	668	33701	668	69039285
760	260	4002	-303	-970	-9104	136	164	132	669	33730	669	69039285
738	261	4004	-305	-975	-9116	129	163	135	670	33824	670	69039291
718	256	3997	-312	-979	-9098	129	163	135	671	33851	671	69039291
728	260	3992	-315	-982	-9056	129	163	135	672	33880	672	69039292
739	252	3981	-314	-980	-9075	136	158	138	673	33974	673	69039299
731	259	3974	-310	-979	-9057	136	158	138	674	34001	674	69039299
746	267	3977	-309	-975	-9089	136	158	138	675	34030	675	69039305
743	276	3985	-312	-982	-9098	129	153	141	676	34124	676	69039306
741	270	3981	-308	-979	-9107	129	153	141	677	34151	677	69039306
752	283	3973	-312	-978	-9102	129	153	141	678	34180	678	69039313
767	268	4028	-318	-980	-9098	132	152	142	679	34274	679	69039314
758	259	4023	-317	-982	-9075	132	152	142	680	34301	680	69039318
765	259	3989	-317	-985	-9042	132	152	142	681	34330	681	69039318
767	264	3994	-311	-981	-9071	127	149	141	682	34424	682	69039319
751	280	3977	-305	-969	-9070	127	149	141	683	34451	683	69039324
717	282	4013	-311	-973	-9075	127	149	141	684	34480	684	69039325
719	279	3965	-319	-977	-9083	128	134	154	685	34574	685	69039330
728	247	3965	-321	-982	-9063	128	134	154	686	34601	686	69039331
759	232	4002	-311	-981	-9050	128	134	154	687	34630	687	69039337
763	243	3975	-308	-973	-9054	128	134	132	688	34724	688	69039338
749	266	3981	-306	-973	-9083	128	134	132	689	34751	689	69039339
738	284	4009	-310	-975	-9103	128	134	132	690	34780	690	69039345
736	271	4005	-315	-981	-9108	124	132	160	691	34874	691	69039345
747	242	4016	-316	-988	-9105	124	132	160	692	34901	692	69039353
755	233	4012	-316	-974	-9079	124	132	160	693	34930	693	69039354
757	236	4010	-310	-975	-9070	127	121	149	694	35024	694	69039354
755	250	3992	-303	-978	-9082	127	121	149	695	35051	695	69039355
739	273	3989	-315	-976	-9060	127	121	149	696	35080	696	69039356
757	259	3950	-313	-980	-9061	112	126	164	697	35174	697	69039363
764	254	3945	-311	-979	-9091	112	126	164	698	35201	698	69039363
766	249	3960	-311	-976	-9073	112	126	164	699	35230	699	69039363
762	242	3984	-311	-980	-9060	115	115	141	700	35324	700	69039372
760	251	4001	-313	-973	-9061	115	115	141	701	35351	701	69039372
742	282	4012	-309	-979	-9050	115	115	141	702	35380	702	69039376
739	281	4012	-307	-976	-9075	104	114	158	703	35474	703	69039376
754	282	4026	-309	-975	-9083	104	114	158	704	35501	704	69039377
762	263	3983	-319	-991	-9068	104	114	158	705	35530	705	69039382
756	254	3968	-317	-983	-9053	110	102	146	706	35624	706	69039383
762	256	3986	-311	-978	-9080	110	102	146	707	35651	707	69039390
745	263	3978	-308	-972	-9095	110	102	146	708	35680	708	69039390
730	266	3988	-309	-966	-9070	104	106	160	709	35774	709	69039390
721	274	3984	-315	-974	-9096	104	106	160	710	35801	710	69039394
739	238	4007	-320	-981	-9095	104	106	160	711	35830	711	69039394
743	243	4008	-318	-976	-9086	94	100	150	712	35924	712	69039402
757	255	4009	-314	-977	-9107	94	100	150	713	35951	713	69039403
743	287	3973	-307	-971	-9078	94	100	150	714	35980	714	69039403
733	280	3986	-312	-976	-9087	91	109	151	715	36074	715	69039409
718	271	3993	-317	-984	-9092	91	109	151	716	36101	716	69039411
758	276	3985	-316	-979	-9068	91	109	151	717	36130	717	69039415
766	283	3976	-311	-982	-9071	89	95	145	718	36224	718	69039415
774	277	3983	-309	-974	-9068	89	95	145	719	36251	719	69039421
759	277	3986	-312	-966	-9101	89	95	145	720	36280	720	69039422
734	284	3975	-309	-976	-9089	88	98	144	721	36374	721	69039423
732	292	3992	-309	-976	-9082	88	98	144	722	36401	722	69039427
768	270	4006	-313	-983	-9064	88	98	144	723	36430	723	69039428
758	257	4015	-312	-982	-9066	82	88	146	724	36524	724	69039433
759	256	4024	-314	-976	-9045	82	88	146	725	36551	725	69039434
744	268	3997	-305	-975	-9073	82	88	146	726	36580	726	69039434
727	267	3979	-309	-969	-9072	77	89	137	727	36674	727	69039441
728	272	3982	-310	-974	-9063	77	89	137	728	36701	728	69039441
749	283	3983	-313	-983	-9061	77	89	137	729	36724	729	69039450
749	285	3990	-312	-974	-9048	80	86	142	730	36818	730	69039450
756	277	3984	-311	-978	-9057	80	86	142	731	36851	731	69039450
751	271	3995	-311	-975	-9048	80	86	142	732	36880	732	69039453
745	287	4014	-308	-977	-9069	75	79	137	733	36974	733	69039454
720	287	3987	-309	-978	-9078	75	79	137	734	37001	734	69039461
751	270	4013	-317	-979	-9091	75	79	137	735	37030	735	69039462
741	273	3992	-316	-982	-9114	76	80	142	736	37124	736	69039462
751	277	3976	-315	-983	-9067	76	80	142	737	37151	737	69039465
755	293	3976	-311	-971	-9070	76	80	142	738	37180	738	69039465
744	289	3978	-310	-977	-9078	69	77	129	739	37274	739	69039472
749	274	3988	-312	-977	-9083	69	77	129	740	37301	740	69039473
746	268	4009	-314	-972	-9084	69	77	129	741	37330	741	69039473
753	292	4006	-314	-977	-9099	73	79	135	742	37424	742	69039480
752	287	3983	-311	-978	-9048	73	79	135	743	37451	743	69039482
762	259	3976	-314	-976	-9067	73	79	135	744	37480	744	69039486
751	283	3967	-308	-980	-9091	67	65	123	745	37574	745	69039492
746	268	3994	-309	-973	-9057	67	65	123	746	37601	746	69039492
728	298	3980	-304	-982	-9084	67	65	123	747	37630	747	69039493
738	307	3983	-306	-980	-9073	65	75	135	748	37724	748	69039493
748	303	3971	-312	-978	-9065	65	75	135	749	37751	749	69039498
747	276	3976	-315	-985	-9087	65	75	135	750	37780	750	69039499
743	276	3986	-312	-984	-9072	66	70	120	751	37874	751	69039505
735	277	4023	-310	-977	-9069	66	70	120	752	37901	752	69039505
749	290	3999	-314	-980	-9087	66	70	120	753	37930	753	69039505
751	285	3986	-316	-977	-9080	59	65	129	754	38024	754	69039512
756	273	3989	-315	-979	-9062	59	65	129	755	38051	755	69039512
758	261	3983	-317	-978	-9073	59	65	129	756	38080	756	69039518
751	274	3971	-318	-973	-9074	52	64	120	757	38174	757	69039518
762	282	3982	-313	-972	-9080	52	64	120	758	38201	758	69039519
763	281	3972	-314	-969	-9112	52	64	120	759	38230	759	69039525
751	289	3986	-313	-972	-9095	56	66	120	760	38324	760	69039525
746	287	3982	-315	-980	-9101	56	66	120	761	38351	761	69039532
753	305	3993	-310	-976	-9054	56	66	120	762	38380	762	69039533
754	298	3996	-312	-976	-9054	45	59	115	763	38474	763	69039533
761	291	3988	-313	-980	-9094	45	59	115	764	38501	764	69039536
731	282	3991	-313	-979	-9078	45	59	115	765	38530	765	69039536
738	284	3969	-312	-988	-9056	48	64	116	766	38624	766	69039543
748	280	3959	-309	-983	-9075	48	64	116	767	38651	767	69039544
746	281	3993	-311	-982	-9103	48	64	116	768	38680	768	69039544
741	279	3990	-309	-981	-9071	44	64	112	769	38774	769	69039551
733	277	3974	-309	-967	-9100	44	64	112	770	38801	770	69039552
727	285	4001	-307	-972	-9102	44	64	112	771	38830	771	69039557
733	295	3989	-308	-970	-9092	46	60	116	772	38924	772	69039557
743	296	3999	-310	-971	-9093	46	60	116	773	38951	773	69039558
728	296	3981	-310	-980	-9113	46	60	116	774	38980	774	69039563
724	283	3991	-310	-974	-9114	45	59	105	775	39074	775	69039564
725	275	3986	-311	-977	-9081	45	59	105	776	39101	776	69039569
725	290	3980	-312	-980	-9108	45	59	105	777	39130	777	69039570
723	288	3975	-314	-978	-9107	41	53	113	778	39224	778	69039576
726	274	3975	-317	-982	-9110	41	53	113	779	39251	779	69039576
745	278	4008	-316	-989	-9064	41	53	113	780	39280	780	69039577
740	288	4002	-313	-985	-9059	33	53	109	781	39374	781	69039584
738	286	4003	-314	-978	-9067	33	53	109	782	39401	782	69039584
734	275	4015	-312	-973	-9071	33	53	109	783	39430	783	69039591
729	282	4008	-311	-977	-9074	31	55	109	784	39524	784	69039592
739	291	3991	-311	-981	-9095	31	55	109	785	39551	785	69039592
731	303	3988	-307	-978	-9075	31	55	109	786	39580	786	69039596
740	297	3993	-309	-983	-9086	31	55	105	787	39674	787	69039597
754	286	3991	-312	-979	-9063	31	55	105	788	39701	788	69039604
747	273	3972	-311	-977	-9058	31	55	105	789	39730	789	69039604
732	267	3988	-306	-971	-9087	30	52	100	790	39824	790	69039605
725	277	4004	-306	-967	-9104	30	52	100	791	39851	791	69039607
738	299	4015	-310	-980	-9077	30	52	100	792	39880	792	69039608
729	308	3987	-313	-979	-9097	22	56	102	793	39974	793	69039615
738	302	3955	-313	-977	-9091	22	56	102	794	40001	794	69039615
750	298	3987	-311	-982	-9097	22	56	102	795	40030	795	69039615
748	300	3984	-313	-976	-9089	24	48	96	796	40124	796	69039622
743	285	3990	-315	-974	-9062	24	48	96	797	40151	797	69039623
752	283	3974	-315	-982	-9069	24	48	96	798	40180	798	69039629
747	280	4003	-316	-981	-9080	19	55	95	799	40274	799	69039629
735	289	4020	-313	-984	-9062	19	55	95	800	40301	800	69039629
738	288	3988	-312	-978	-9079	19	55	95	801	40330	801	69039636
757	301	3974	-311	-971	-9091	18	54	88	802	40424	802	69039636
744	308	3970	-312	-974	-9074	18	54	88	803	40451	803	69039642
748	293	3980	-317	-975	-9107	18	54	88	804	40480	804	69039643
748	287	3970	-315	-981	-9101	13	49	95	805	40574	805	69039643
729	297	3992	-314	-978	-9060	13	49	95	806	40601	806	69039646
724	281	3986	-312	-974	-9084	13	49	95	807	40630	807	69039646
713	289	3994	-318	-979	-9066	9	51	85	808	40724	808	69039655
727	287	3983	-315	-985	-9057	9	51	85	809	40751	809	69039655
721	268	3973	-310	-978	-9066	9	51	85	810	40780	810	69039661
737	281	3969	-309	-976	-9090	10	58	88	811	40868	811	69039661
745	299	3987	-311	-973	-9071	10	58	88	812	40901	812	69039662
728	274	3978	-313	-975	-9061	10	58	88	813	40930	813	69039667
724	262	4002	-311	-978	-9054	11	49	85	814	41024	814	69039668
724	268	3989	-307	-974	-9069	11	49	85	815	41051	815	69039675
731	290	3979	-309	-976	-9099	11	49	85	816	41080	816	69039675
744	305	4004	-313	-977	-9081	9	53	85	817	41174	817	69039676
732	305	4000	-309	-972	-9078	9	53	85	818	41201	818	69039678
723	299	3978	-316	-989	-9097	9	53	85	819	41230	819	69039679
737	301	3974	-317	-987	-9060	8	52	82	820	41324	820	69039686
724	297	3991	-314	-984	-9084	8	52	82	821	41351	821	69039687
726	290	3992	-316	-982	-9090	8	52	82	822	41380	822	69039687
725	288	3989	-316	-976	-9087	6	50	80	823	41474	823	69039693
720	297	3997	-319	-984	-9105	6	50	80	824	41501	824	69039694
750	288	3972	-315	-981	-9086	6	50	80	825	41530	825	69039700
751	287	3996	-316	-981	-9042	0	56	76	826	41624	826	69039702
737	293	4003	-313	-983	-9093	0	56	76	827	41651	827	69039702
735	287	4015	-313	-978	-9118	0	56	76	828	41680	828	69039706
742	283	4026	-312	-983	-9069	6	54	76	829	41774	829	69039706
731	280	4022	-312	-982	-9090	6	54	76	830	41801	830	69039713
712	302	4001	-310	-976	-9094	6	54	76	831	41830	831	69039714
710	319	3983	-312	-980	-9067	-2	54	78	832	41924	832	69039714
726	293	3987	-312	-979	-9099	-2	54	78	833	41951	833	69039743
721	282	3999	-311	-979	-9118	-2	54	78	834	41980	834	69039744
716	287	3967	-307	-975	-9099	-1	49	77	835	42074	835	69039745
714	286	3966	-308	-973	-9091	-1	49	77	836	42101	836	69039745
704	280	3981	-308	-974	-9078	-1	49	77	837	42130	837	69039746
715	288	3998	-312	-970	-9046	-7	61	73	838	42224	838	69039748
716	285	4003	-314	-970	-9056	-7	61	73	839	42251	839	69039749
733	291	4007	-314	-977	-9096	-7	61	73	840	42280	840	69039750
739	284	4014	-315	-974	-9093	-11	55	77	841	42374	841	69039752
722	288	3991	-314	-977	-9097	-11	55	77	842	42401	842	69039752
726	284	4004	-311	-981	-9063	-11	55	77	843	42430	843	69039752
719	294	3989	-311	-975	-9077	-18	66	68	844	42524	844	69039753
736	297	3969	-307	-979	-9074	-18	66	68	845	42551	845	69039754
716	283	3981	-309	-977	-9117	-18	66	68	846	42580	846	69039755
709	286	3948	-311	-975	-9102	-12	56	72	847	42674	847	69039757
707	292	3994	-317	-981	-9086	-12	56	72	848	42701	848	69039757
734	297	3979	-307	-977	-9075	-12	56	72	849	42730	849	69039758
723	299	3978	-309	-975	-9079	-17	61	75	850	42824	850	69039764
707	290	4006	-310	-980	-9103	-17	61	75	851	42851	851	69039765
720	302	3995	-314	-975	-9089	-17	61	75	852	42880	852	69039771
719	293	4003	-313	-982	-9096	-10	62	70	853	42974	853	69039771
717	282	4012	-312	-986	-9092	-10	62	70	854	43001	854	69039771
739	289	4005	-309	-979	-9088	-10	62	70	855	43030	855	69039777
722	286	3993	-307	-982	-9061	-20	60	72	856	43124	856	69039777
716	294	3997	-310	-977	-9047	-20	60	72	857	43151	857	69039785
739	294	3986	-308	-979	-9112	-20	60	72	858	43180	858	69039785
736	286	3978	-312	-980	-9127	-21	59	69	859	43274	859	69039786
722	285	4002	-311	-974	-9072	-21	59	69	860	43301	860	69039789
714	312	3975	-313	-978	-9099	-21	59	69	861	43330	861	69039789
722	299	3961	-316	-975	-9107	-23	59	77	862	43424	862	69039796
728	286	3991	-313	-975	-9081	-23	59	77	863	43451	863	69039797
715	304	3961	-313	-977	-9067	-23	59	77	864	43480	864	69039797
715	306	3973	-309	-977	-9106	-26	56	72	865	43574	865	69039804
716	313	3976	-307	-983	-9090	-26	56	72	866	43601	866	69039804
727	265	4006	-314	-984	-9082	-26	56	72	867	43630	867	69039812
727	291	3999	-315	-979	-9086	-23	65	77	868	43724	868	69039813
718	293	4000	-310	-980	-9055	-23	65	77	869	43751	869	69039813
709	297	3993	-310	-974	-9042	-23	65	77	870	43780	870	69039818
699	300	3993	-310	-977	-9091	-24	66	76	871	43874	871	69039818
715	285	3993	-314	-984	-9102	-24	66	76	872	43901	872	69039822
739	275	3994	-315	-976	-9106	-24	66	76	873	43930	873	69039823
734	276	3995	-310	-976	-9106	-30	68	72	874	44024	874	69039828
730	282	4006	-308	-972	-9080	-30	68	72	875	44051	875	69039829
717	309	3994	-307	-972	-9097	-30	68	72	876	44080	876	69039829
709	310	4008	-309	-981	-9082	-33	69	77	877	44174	877	69039836
700	293	3995	-313	-976	-9085	-33	69	77	878	44201	878	69039837
719	294	4010	-312	-981	-9091	-33	69	77	879	44230	879	69039842
717	304	4012	-311	-985	-9084	-31	67	73	880	44324	880	69039843
692	303	4014	-312	-977	-9066	-31	67	73	881	44351	881	69039843
691	272	3974	-311	-980	-9090	-31	67	73	882	44380	882	69039849
693	275	3969	-314	-985	-9081	-37	71	77	883	44468	883	69039849
709	277	3972	-313	-971	-9086	-37	71	77	884	44501	884	69039856
716	279	3998	-313	-974	-9097	-37	71	77	885	44530	885	69039857
726	275	3996	-315	-972	-9082	-40	68	76	886	44624	886	69039857
721	275	4017	-317	-974	-9072	-40	68	76	887	44651	887	69039862
704	267	3975	-308	-979	-9103	-40	68	76	888	44680	888	69039863
693	289	3975	-307	-970	-9083	-42	76	76	889	44774	889	69039867
689	292	3962	-306	-969	-9114	-42	76	76	890	44801	890	69039868
690	287	3976	-311	-977	-9057	-42	76	76	891	44830	891	69039868
687	277	3977	-316	-977	-9076	-47	75	77	892	44924	892	69039875
708	290	3972	-314	-980	-9107	-47	75	77	893	44951	893	69039876
715	275	3984	-308	-974	-9122	-47	75	77	894	44980	894	69039882
704	281	3974	-309	-975	-9112	-46	82	72	895	45074	895	69039883
717	288	3989	-310	-979	-9104	-46	82	72	896	45101	896	69039884
710	271	3985	-310	-977	-9114	-46	82	72	897	45130	897	69039887
720	272	3969	-316	-985	-9093	-46	76	74	898	45224	898	69039888
717	285	3973	-309	-982	-9084	-46	76	74	899	45251	899	69039893
690	294	3973	-309	-980	-9056	-46	76	74	900	45280	900	69039894
693	295	3971	-311	-981	-9067	-56	84	74	901	45374	901	69039900
700	289	3995	-313	-980	-9072	-56	84	74	902	45401	902	69039900
700	274	3994	-311	-981	-9113	-56	84	74	903	45430	903	69039900
711	274	4012	-313	-979	-9103	-53	85	77	904	45524	904	69039907
731	283	4016	-311	-973	-9080	-53	85	77	905	45551	905	69039908
726	281	3997	-312	-984	-9090	-53	85	77	906	45580	906	69039913
720	280	3992	-311	-979	-9067	-55	87	75	907	45674	907	69039914
689	284	4008	-316	-970	-9063	-55	87	75	908	45701	908	69039914
697	290	3987	-311	-982	-9079	-55	87	75	909	45730	909	69039920
701	289	3981	-315	-974	-9079	-62	92	78	910	45824	910	69039920
705	278	3981	-317	-973	-9083	-62	92	78	911	45851	911	69039929
714	270	3970	-315	-977	-9087	-62	92	78	912	45880	912	69039932
719	269	3969	-318	-972	-9061	-63	95	81	913	45974	913	69039933
704	285	3987	-312	-978	-9056	-63	95	81	914	46001	914	69039934
704	278	3961	-312	-985	-9094	-63	95	81	915	46030	915	69039935
708	277	3976	-315	-982	-9117	-60	94	74	916	46124	916	69039938
699	273	3991	-313	-983	-9115	-60	94	74	917	46151	917	69039939
700	283	4014	-309	-979	-9078	-60	94	74	918	46180	918	69039943
684	294	4015	-310	-980	-9092	-63	99	81	919	46274	919	69039946
676	296	4002	-312	-984	-9069	-63	99	81	920	46301	920	69039948
710	294	4007	-316	-978	-9063	-63	99	81	921	46330	921	69039952
707	288	4017	-315	-983	-9076	-62	104	76	922	46424	922	69039953
705	290	4001	-314	-978	-9104	-62	104	76	923	46451	923	69039953
707	285	3980	-313	-987	-9078	-62	104	76	924	46480	924	69039958
711	287	3988	-312	-984	-9097	-62	102	80	925	46574	925	69039959
723	279	3982	-312	-981	-9076	-62	102	80	926	46601	926	69039965
709	259	3982	-313	-984	-9074	-62	102	80	927	46630	927	69039965
726	265	3996	-312	-980	-9109	-66	108	80	928	46724	928	69039965
729	267	4001	-310	-973	-9083	-66	108	80	929	46751	929	69039971
723	286	4011	-316	-982	-9092	-66	108	80	930	46780	930	69039971
722	283	3999	-317	-976	-9102	-69	109	81	931	46874	931	69039979
717	280	3981	-316	-975	-9080	-69	109	81	932	46901	932	69039979
715	287	3973	-306	-970	-9061	-69	109	81	933	46930	933	69039985
694	272	3960	-306	-970	-9061	-74	116	80	934	47024	934	69039985
681	269	3962	-316	-985	-9085	-74	116	80	935	47051	935	69039986
722	265	3998	-314	-985	-9091	-74	116	80	936	47080	936	69039991
688	273	3980	-311	-977	-9075	-70	120	78	937	47174	937	69039991
683	286	3995	-308	-976	-9092	-70	120	78	938	47201	938	69039998
703	288	3988	-312	-973	-9084	-70	120	78	939	47230	939	69039999
696	272	4000	-314	-982	-9072	-67	123	79	940	47324	940	69039999
714	263	3999	-315	-982	-9083	-67	123	79	941	47351	941	69040002
719	258	3990	-312	-976	-9100	-67	123	79	942	47380	942	69040003
713	259	4003	-307	-980	-9089	-77	127	85	943	47474	943	69040011
687	269	3988	-304	-980	-9064	-77	127	85	944	47501	944	69040012
691	265	4007	-315	-976	-9064	-77	127	85	945	47530	945	69040012
723	263	4012	-314	-982	-9056	-68	134	82	946	47624	946	69040017
714	262	4003	-315	-976	-9065	-68	134	82	947	47651	947	69040018
711	280	3976	-312	-977	-9096	-68	134	82	948	47680	948	69040023
711	282	3988	-307	-975	-9114	-78	126	80	949	47774	949	69040024
699	274	3996	-312	-974	-9101	-78	126	80	950	47801	950	69040025
704	276	3991	-316	-981	-9088	-78	126	80	951	47830	951	69040031
709	276	3980	-316	-978	-9059	-68	138	80	952	47924	952	69040032
705	283	3987	-316	-972	-9079	-68	138	80	953	47951	953	69040036
708	288	3983	-314	-975	-9113	-68	138	80	954	47980	954	69040037
699	306	4010	-313	-975	-9124	-70	136	84	955	48074	955	69040037
691	279	4002	-314	-978	-9098	-70	136	84	956	48101	956	69040042
724	272	3984	-313	-986	-9088	-70	136	84	957	48130	957	69040043
699	255	3965	-309	-981	-9071	-73	145	85	958	48218	958	69040048
697	258	3984	-313	-980	-9067	-73	145	85	959	48251	959	69040049
696	272	3990	-312	-974	-9074	-73	145	85	960	48280	960	69040056
691	264	3982	-314	-980	-9070	-71	143	79	961	48368	961	69040056
703	265	3979	-312	-982	-9068	-71	143	79	962	48401	962	69040056
723	287	3998	-304	-976	-9079	-71	143	79	963	48430	963	69040062
722	272	3997	-311	-977	-9075	-70	152	84	964	48524	964	69040062
711	268	3991	-311	-981	-9061	-70	152	84	965	48551	965	69040068
709	280	3994	-314	-982	-9075	-70	152	84	966	48580	966	69040069
714	283	3961	-313	-985	-9086	-67	151	83	967	48674	967	69040069
719	287	3973	-309	-977	-9103	-67	151	83	968	48701	968	69040075
719	277	3995	-308	-977	-9109	-67	151	83	969	48730	969	69040076
714	264	3994	-309	-984	-9083	-72	160	86	970	48824	970	69040082
700	270	3980	-312	-982	-9061	-72	160	86	971	48851	971	69040082
701	257	3970	-308	-981	-9074	-72	160	86	972	48880	972	69040083
707	272	3987	-309	-976	-9069	-72	162	88	973	48974	973	69040087
713	255	3990	-316	-978	-9093	-72	162	88	974	49001	974	69040088
693	251	4006	-315	-982	-9096	-72	162	88	975	49030	975	69040095
693	254	4009	-313	-979	-9108	-70	170	86	976	49124	976	69040095
696	267	3996	-314	-979	-9053	-70	170	86	977	49151	977	69040096
691	263	3988	-314	-983	-9063	-70	170	86	978	49180	978	69040102
711	266	4010	-314	-975	-9078	-61	171	81	979	49274	979	69040102
723	263	3985	-313	-976	-9087	-61	171	81	980	49301	980	69040105
686	265	3972	-312	-973	-9077	-61	171	81	981	49330	981	69040105
676	266	3991	-308	-972	-9056	-65	169	87	982	49424	982	69040113
684	274	4011	-309	-978	-9055	-65	169	87	983	49451	983	69040114
688	263	3981	-313	-978	-9069	-65	169	87	984	49480	984	69040114
697	251	3996	-314	-984	-9079	-64	176	86	985	49574	985	69040120
708	249	4013	-312	-986	-9094	-64	176	86	986	49601	986	69040120
725	251	3985	-308	-973	-9071	-64	176	86	987	49630	987	69040127
707	257	4003	-312	-977	-9084	-63	185	85	988	49724	988	69040127
690	266	4016	-312	-981	-9051	-63	185	85	989	49751	989	69040128
687	260	4026	-313	-977	-9065	-63	185	85	990	49780	990	69040133
697	250	4006	-314	-984	-9083	-54	186	88	991	49874	991	69040134
709	255	3995	-316	-978	-9039	-54	186	88	992	49901	992	69040141
713	275	3981	-312	-972	-9086	-54	186	88	993	49930	993	69040142
707	271	3986	-312	-973	-9070	-56	188	86	994	50024	994	69040143
722	277	3993	-311	-972	-9092	-56	188	86	995	50051	995	69040146
712	274	3995	-316	-978	-9077	-56	188	86	996	50080	996	69040147
697	267	3993	-312	-975	-9090	-58	192	96	997	50174	997	69040152
699	259	3996	-309	-977	-9078	-58	192	96	998	50201	998	69040153
735	261	4000	-313	-977	-9107	-58	192	96	999	50230	999	69040153
732	251	3986	-313	-974	-9093	-59	193	91	1000	50324	1000	69040159
716	244	3994	-311	-978	-9074	-59	193	91	1001	50351	1001	69040159
717	242	4002	-312	-978	-9067	-59	193	91	1002	50380	1002	69040166
707	244	4004	-315	-971	-9044	-50	198	92	1003	50474	1003	69040166
708	245	3989	-316	-977	-9075	-50	198	92	1004	50501	1004	69040166
708	246	3982	-319	-977	-9102	-50	198	92	1005	50530	1005	69040172
713	234	4020	-316	-977	-9093	-50	200	90	1006	50624	1006	69040172
723	252	3984	-312	-982	-9089	-50	200	90	1007	50651	1007	69040176
690	259	3994	-314	-976	-9067	-50	200	90	1008	50675	1008	69040176
701	257	3986	-317	-976	-9048	-47	207	87	1009	50768	1009	69040184
714	247	3989	-313	-983	-9087	-47	207	87	1010	50800	1010	69040185
735	254	3984	-309	-976	-9087	-47	207	87	1011	50829	1011	69040185
725	259	3980	-311	-976	-9095	-43	205	93	1012	50923	1012	69040191
720	265	3998	-308	-976	-9097	-43	205	93	1013	50950	1013	69040191
701	259	3998	-311	-976	-9083	-43	205	93	1014	50979	1014	69040197
720	254	4014	-310	-983	-9057	-43	213	87	1015	51073	1015	69040197
713	253	3980	-307	-979	-9086	-43	213	87	1016	51100	1016	69040198
681	256	3997	-307	-986	-9109	-43	213	87	1017	51129	1017	69040205
685	260	3976	-305	-983	-9077	-38	212	88	1018	51223	1018	69040205
695	252	3988	-311	-974	-9086	-38	212	88	1019	51250	1019	69040212
716	265	3985	-312	-986	-9090	-38	212	88	1020	51279	1020	69040213
729	271	3977	-308	-978	-9073	-37	213	99	1021	51373	1021	69040213
721	274	3996	-307	-974	-9060	-37	213	99	1022	51400	1022	69040217
722	264	3995	-311	-979	-9061	-37	213	99	1023	51429	1023	69040218
716	254	3989	-312	-974	-9090	-32	220	94	1024	51523	1024	69040223
723	245	4001	-314	-975	-9097	-32	220	94	1025	51550	1025	69040224
705	260	4006	-310	-978	-9091	-32	220	94	1026	51579	1026	69040224
700	256	3979	-308	-975	-9076	-28	214	98	1027	51673	1027	69040230
715	262	3989	-310	-977	-9105	-28	214	98	1028	51700	1028	69040230
732	243	3990	-318	-977	-9086	-28	214	98	1029	51724	1029	69040237
716	252	3982	-315	-977	-9081	-27	221	95	1030	51818	1030	69040237
712	242	4005	-314	-976	-9081	-27	221	95	1031	51851	1031	69040238
696	256	4008	-313	-973	-9102	-27	221	95	1032	51880	1032	69040243
696	243	4000	-312	-977	-9072	-24	224	94	1033	51974	1033	69040244
693	253	4004	-312	-979	-9088	-24	224	94	1034	52001	1034	69040247
695	247	3992	-310	-977	-9093	-24	224	94	1035	52030	1035	69040248
712	254	3973	-314	-985	-9092	-14	220	96	1036	52124	1036	69040249
721	249	3963	-313	-984	-9098	-14	220	96	1037	52151	1037	69040256
724	249	3987	-309	-976	-9093	-14	220	96	1038	52180	1038	69040256
719	252	3988	-311	-977	-9093	-14	226	100	1039	52274	1039	69040262
705	253	3998	-310	-976	-9058	-14	226	100	1040	52301	1040	69040263
697	247	4015	-308	-982	-9057	-14	226	100	1041	52330	1041	69040268
694	241	3982	-311	-981	-9079	-7	231	103	1042	52424	1042	69040269
705	249	3973	-310	-979	-9091	-7	231	103	1043	52451	1043	69040269
704	257	4003	-314	-984	-9066	-7	231	103	1044	52480	1044	69040276
708	251	3988	-311	-981	-9083	-11	231	101	1045	52574	1045	69040277
730	252	3984	-310	-978	-9052	-11	231	101	1046	52601	1046	69040282
726	241	3998	-311	-978	-9079	-11	231	101	1047	52630	1047	69040282
718	244	3994	-312	-978	-9103	-1	229	103	1048	52724	1048	69040283
727	239	3981	-314	-986	-9095	-1	229	103	1049	52751	1049	69040288
717	256	3985	-313	-977	-9083	-1	229	103	1050	52780	1050	69040289
705	242	3978	-311	-973	-9100	-2	232	100	1051	52874	1051	69040294
701	240	3987	-312	-980	-9076	-2	232	100	1052	52901	1052	69040295
712	263	4012	-311	-974	-9082	-2	232	100	1053	52930	1053	69040295
715	249	4003	-314	-983	-9079	5	233	99	1054	53024	1054	69040301
722	244	3994	-311	-988	-9070	5	233	99	1055	53051	1055	69040301
711	246	3979	-311	-982	-9090	5	233	99	1056	53080	1056	69040308
712	259	3977	-308	-985	-9088	4	234	102	1057	53174	1057	69040309
716	254	4007	-308	-980	-9080	4	234	102	1058	53201	1058	69040309
726	243	4008	-310	-975	-9076	4	234	102	1059	53230	1059	69040315
724	245	4017	-308	-975	-9086	16	238	100	1060	53324	1060	69040315
712	245	4009	-306	-977	-9098	16	238	100	1061	53351	1061	69040322
729	249	3999	-312	-981	-9097	16	238	100	1062	53374	1062	69040323
726	258	3982	-316	-981	-9071	12	234	102	1063	53472	1063	69040329
721	253	4001	-308	-974	-9102	12	234	102	1064	53501	1064	69040329
722	253	4004	-310	-973	-9093	12	234	102	1065	53510	1065	69040329
716	260	3984	-312	-977	-9083	12	234	102	1066	53539	1066	69040336
722	249	3985	-314	-980	-9042	18	234	104	1067	53631	1067	69040336
740	245	3983	-313	-974	-9111	18	234	104	1068	53660	1068	69040340
753	249	3993	-311	-977	-9075	18	234	104	1069	53778	1069	69040340
710	238	3972	-311	-974	-9092	18	234	104	1070	53896	1070	69040340
713	232	3961	-313	-974	-9082	22	236	104	1071	53990	1071	69040346
713	256	3965	-318	-981	-9115	22	236	104	1072	54000	1072	69040347
720	250	3987	-317	-984	-9097	22	236	104	1073	54118	1073	69040354
723	247	3997	-313	-978	-9079	22	236	104	1074	54236	1074	69040354
723	256	3987	-311	-977	-9086	30	232	108	1075	54330	1075	69040354
707	245	3975	-310	-972	-9073	30	232	108	1076	54362	1076	69040386
719	242	3992	-311	-971	-9084	30	232	108	1077	54391	1077	69040387
715	236	4005	-314	-982	-9079	41	233	107	1078	54485	1078	69040387
720	230	3988	-308	-984	-9074	41	233	107	1079	54512	1079	69040388
748	256	3998	-309	-973	-9073	41	233	107	1080	54541	1080	69040389
738	268	3975	-308	-979	-9047	40	232	100	1081	54635	1081	69040394
737	249	3973	-311	-978	-9075	40	232	100	1082	54662	1082	69040394
744	252	3991	-312	-986	-9124	40	232	100	1083	54691	1083	69040396
735	254	3979	-312	-982	-9088	41	235	103	1084	54785	1084	69040397
736	251	3991	-312	-979	-9090	41	235	103	1085	54812	1085	69040398
732	263	3953	-310	-984	-9110	41	235	103	1086	54841	1086	69040399
742	265	3981	-308	-977	-9122	48	234	106	1087	54935	1087	69040399
737	248	3995	-308	-980	-9108	48	234	106	1088	54962	1088	69040404
744	250	3998	-314	-981	-9114	48	234	106	1089	54991	1089	69040417
745	250	4001	-310	-975	-9056	50	232	104	1090	55085	1090	69040419
734	244	3986	-310	-977	-9088	50	232	104	1091	55112	1091	69040420
738	239	3964	-315	-983	-9097	50	232	104	1092	55141	1092	69040423
739	253	3995	-313	-978	-9082	51	231	105	1093	55235	1093	69040423
739	261	3982	-312	-985	-9108	51	231	105	1094	55262	1094	69040424
735	247	4011	-311	-982	-9119	51	231	105	1095	55291	1095	69040424
743	248	3993	-311	-977	-9094	54	232	110	1096	55385	1096	69040424
747	256	3997	-312	-979	-9084	54	232	110	1097	55412	1097	69040424
745	250	3988	-312	-981	-9063	54	232	110	1098	55441	1098	69040425
736	261	4012	-311	-982	-9081	65	231	103	1099	55535	1099	69040425
727	256	3993	-308	-980	-9083	65	231	103	1100	55562	1100	69040425
711	245	3974	-317	-975	-9089	65	231	103	1101	55591	1101	69040425
723	239	3976	-315	-980	-9091	62	226	104	1102	55685	1102	69040426
721	241	3981	-311	-980	-9068	62	226	104	1103	55712	1103	69040429
749	245	3970	-311	-985	-9089	62	226	104	1104	55741	1104	69040429
747	241	3970	-310	-985	-9093	72	228	112	1105	55835	1105	69040437
742	236	3996	-309	-979	-9089	72	228	112	1106	55862	1106	69040437
739	250	4006	-310	-982	-9091	72	228	112	1107	55891	1107	69040438
724	237	3998	-311	-982	-9088	72	224	110	1108	55985	1108	69040444
747	246	3989	-310	-977	-9071	72	224	110	1109	56012	1109	69040444
736	257	3972	-309	-982	-9061	72	224	110	1110	56041	1110	69040450
733	257	3988	-309	-974	-9089	79	229	109	1111	56135	1111	69040450
731	247	3986	-310	-978	-9087	79	229	109	1112	56162	1112	69040450
720	249	4004	-312	-979	-9082	79	229	109	1113	56191	1113	69040457
724	249	4028	-314	-976	-9077	83	217	115	1114	56285	1114	69040457
733	254	4019	-315	-977	-9058	83	217	115	1115	56312	1115	69040463
720	252	4019	-317	-977	-9058	83	217	115	1116	56341	1116	69040463
722	258	4010	-310	-977	-9099	88	220	112	1117	56435	1117	69040464
729	249	3981	-311	-982	-9080	88	220	112	1118	56462	1118	69040467
743	247	3994	-315	-977	-9081	88	220	112	1119	56491	1119	69040467
742	253	3995	-312	-979	-9117	89	211	119	1120	56585	1120	69040476
738	254	4001	-313	-983	-9103	89	211	119	1121	56612	1121	69040476
744	260	4006	-312	-978	-9082	89	211	119	1122	56641	1122	69040482
737	247	3980	-312	-981	-9088	98	206	114	1123	56735	1123	69040482
735	252	4015	-309	-975	-9067	98	206	114	1124	56762	1124	69040483
751	259	3980	-310	-976	-9089	98	206	114	1125	56791	1125	69040491
740	261	4000	-310	-981	-9089	96	206	116	1126	56885	1126	69040491
734	260	4012	-313	-980	-9075	96	206	116	1127	56912	1127	69040496
731	243	4010	-315	-984	-9066	96	206	116	1128	56941	1128	69040496
748	256	4018	-314	-982	-9060	107	207	117	1129	57035	1129	69040496
753	250	3990	-309	-972	-9061	107	207	117	1130	57062	1130	69040500
749	252	3964	-307	-979	-9073	107	207	117	1131	57091	1131	69040500
736	247	3988	-311	-981	-9097	105	195	119	1132	57185	1132	69040508
746	244	3991	-312	-980	-9127	105	195	119	1133	57212	1133	69040509
741	248	4002	-307	-982	-9084	105	195	119	1134	57241	1134	69040509
735	266	3994	-311	-976	-9097	111	199	119	1135	57335	1135	69040514
730	257	4002	-312	-976	-9075	111	199	119	1136	57362	1136	69040515
727	258	3976	-308	-977	-9068	111	199	119	1137	57391	1137	69040521
739	254	3964	-308	-975	-9070	116	194	120	1138	57485	1138	69040521
761	261	3964	-310	-982	-9129	116	194	120	1139	57512	1139	69040521
743	265	3972	-313	-978	-9090	116	194	120	1140	57541	1140	69040528
739	274	3987	-313	-981	-9074	115	193	123	1141	57635	1141	69040528
741	265	3984	-315	-983	-9109	115	193	123	1142	57662	1142	69040535
740	269	4008	-312	-980	-9116	115	193	123	1143	57691	1143	69040535
742	268	4002	-309	-978	-9102	121	191	123	1144	57785	1144	69040535
762	271	4001	-313	-979	-9107	121	191	123	1145	57812	1145	69040538
735	246	3975	-315	-983	-9096	121	191	123	1146	57841	1146	69040539
740	246	3958	-314	-981	-9058	121	185	127	1147	57935	1147	69040547
757	235	3983	-315	-977	-9076	121	185	127	1148	57962	1148	69040548
734	256	3995	-309	-977	-9108	121	185	127	1149	57991	1149	69040548
727	265	3991	-309	-980	-9095	127	177	121	1150	58085	1150	69040553
737	272	3990	-312	-975	-9101	127	177	121	1151	58112	1151	69040554
743	245	4008	-319	-982	-9103	127	177	121	1152	58135	1152	69040561
742	248	3994	-315	-984	-9071	122	176	132	1153	58229	1153	69040561
747	250	3971	-312	-980	-9056	122	176	132	1154	58262	1154	69040567
731	270	3990	-313	-980	-9079	122	176	132	1155	58290	1155	69040567
744	253	3964	-312	-976	-9090	133	165	127	1156	58384	1156	69040567
751	249	3988	-312	-977	-9111	133	165	127	1157	58411	1157	69040571
732	259	3990	-308	-981	-9082	133	165	127	1158	58440	1158	69040571
743	259	3985	-306	-977	-9071	122	170	138	1159	58534	1159	69040580
766	262	3979	-310	-975	-9083	122	170	138	1160	58561	1160	69040580
749	255	3998	-315	-982	-9066	122	170	138	1161	58590	1161	69040580
751	259	4011	-316	-980	-9067	128	154	132	1162	58684	1162	69040586
754	251	4008	-309	-985	-9106	128	154	132	1163	58711	1163	69040586
739	267	3967	-309	-978	-9053	128	154	132	1164	58740	1164	69040592
759	266	3988	-315	-977	-9078	130	154	144	1165	58834	1165	69040593
758	276	3997	-312	-978	-9066	130	154	144	1166	58861	1166	69040593
765	254	3973	-315	-976	-9071	130	154	144	1167	58890	1167	69040602
744	274	3976	-316	-981	-9074	135	149	129	1168	58984	1168	69040602
761	286	3993	-312	-981	-9078	135	149	129	1169	59011	1169	69040606
748	278	4003	-310	-979	-9071	135	149	129	1170	59040	1170	69040607
769	264	3994	-313	-984	-9079	128	148	152	1171	59134	1171	69040608
764	253	3989	-314	-983	-9064	128	148	152	1172	59161	1172	69040610
749	247	3989	-312	-984	-9067	128	148	152	1173	59190	1173	69040612
739	244	4007	-315	-982	-9095	131	141	143	1174	59284	1174	69040618
735	262	3997	-315	-977	-9084	131	141	143	1175	59311	1175	69040619
734	267	3967	-313	-980	-9094	131	141	143	1176	59340	1176	69040619
744	255	3970	-316	-980	-9111	126	138	154	1177	59434	1177	69040625
741	251	3962	-312	-978	-9077	126	138	154	1178	59461	1178	69040625
736	255	3993	-304	-975	-9116	126	138	154	1179	59490	1179	69040632
745	262	3982	-308	-971	-9112	127	129	149	1180	59584	1180	69040632
746	262	4002	-311	-975	-9073	127	129	149	1181	59611	1181	69040633
743	264	4013	-305	-984	-9066	127	129	149	1182	59640	1182	69040639
737	260	4007	-308	-979	-9092	119	127	151	1183	59734	1183	69040639
741	280	3999	-310	-978	-9102	119	127	151	1184	59761	1184	69040642
735	272	3978	-316	-979	-9058	119	127	151	1185	59790	1185	69040643
724	254	3967	-317	-978	-9072	121	121	153	1186	59878	1186	69040649
731	262	3982	-314	-979	-9086	121	121	153	1187	59911	1187	69040650
735	260	4000	-313	-975	-9090	121	121	153	1188	59940	1188	69040650
732	265	3986	-315	-976	-9106	116	124	152	1189	60034	1189	69040657
732	273	3981	-312	-978	-9106	116	124	152	1190	60061	1190	69040657
754	248	3983	-314	-984	-9081	116	124	152	1191	60090	1191	69040663
761	253	3989	-311	-987	-9068	113	115	151	1192	60184	1192	69040664
760	263	3999	-309	-984	-9061	113	115	151	1193	60211	1193	69040664
743	284	4002	-309	-971	-9085	113	115	151	1194	60240	1194	69040672
760	293	3997	-308	-974	-9078	105	107	149	1195	60334	1195	69040672
745	291	3987	-312	-972	-9104	105	107	149	1196	60361	1196	69040677
743	270	3976	-314	-979	-9086	105	107	149	1197	60390	1197	69040677
735	286	3976	-315	-972	-9077	110	110	156	1198	60484	1198	69040678
736	284	3968	-312	-970	-9088	110	110	156	1199	60511	1199	69040681
746	283	3973	-307	-980	-9106	110	110	156	1200	60540	1200	69040681
755	278	3983	-309	-979	-9123	93	107	141	1201	60634	1201	69040690
736	276	3978	-313	-975	-9108	93	107	141	1202	60661	1202	69040690
747	264	3985	-309	-978	-9092	93	107	141	1203	60690	1203	69040692
762	258	3987	-311	-978	-9082	94	106	158	1204	60784	1204	69040696
777	259	3981	-315	-981	-9104	94	106	158	1205	60811	1205	69040696
744	251	3977	-307	-975	-9086	94	106	158	1206	60840	1206	69040702
750	269	3973	-305	-976	-9088	89	87	141	1207	60934	1207	69040703
737	273	3979	-306	-980	-9111	89	87	141	1208	60961	1208	69040703
752	278	3991	-308	-973	-9081	89	87	141	1209	60990	1209	69040710
747	271	3979	-308	-979	-9055	93	103	157	1210	61084	1210	69040710
767	265	3980	-313	-984	-9093	93	103	157	1211	61111	1211	69040714
763	269	4009	-312	-979	-9099	93	103	157	1212	61140	1212	69040714
748	267	3995	-310	-979	-9086	90	88	134	1213	61234	1213	69040722
747	286	4012	-309	-980	-9092	90	88	134	1214	61261	1214	69040723
772	281	3992	-314	-979	-9099	90	88	134	1215	61290	1215	69040723
770	277	4014	-313	-981	-9063	79	99	151	1216	61384	1216	69040729
764	274	4016	-314	-978	-9068	79	99	151	1217	61411	1217	69040729
760	259	4007	-312	-976	-9086	79	99	151	1218	61440	1218	69040735
744	272	3998	-309	-978	-9078	78	84	134	1219	61534	1219	69040735
732	275	4001	-312	-980	-9108	78	84	134	1220	61561	1220	69040736
715	269	3995	-313	-982	-9093	78	84	134	1221	61590	1221	69040743
728	275	3980	-313	-979	-9076	79	91	143	1222	61684	1222	69040745
739	266	3974	-310	-977	-9065	79	91	143	1223	61711	1223	69040749
745	267	3993	-304	-977	-9063	79	91	143	1224	61740	1224	69040750
752	269	3987	-306	-973	-9073	70	78	128	1225	61834	1225	69040754
759	267	3998	-307	-975	-9099	70	78	128	1226	61861	1226	69040755
761	293	4000	-306	-976	-9104	70	78	128	1227	61890	1227	69040755
760	289	3991	-310	-975	-9131	71	81	137	1228	61984	1228	69040762
759	300	3969	-312	-981	-9081	71	81	137	1229	62011	1229	69040763
738	269	3967	-312	-976	-9087	71	81	137	1230	62040	1230	69040763
742	266	3972	-309	-978	-9076	67	75	129	1231	62134	1231	69040767
741	281	3982	-309	-984	-9071	67	75	129	1232	62161	1232	69040768
747	251	3991	-310	-974	-9100	67	75	129	1233	62190	1233	69040774
757	274	3986	-314	-977	-9097	65	81	133	1234	62284	1234	69040774
759	274	3998	-314	-985	-9059	65	81	133	1235	62311	1235	69040774
761	276	3963	-311	-973	-9037	65	81	133	1236	62340	1236	69040781
760	277	3970	-305	-980	-9053	68	72	128	1237	62434	1237	69040782
738	287	3962	-305	-980	-9068	68	72	128	1238	62461	1238	69040785
744	281	3982	-308	-983	-9065	68	72	128	1239	62490	1239	69040785
738	271	3974	-311	-986	-9092	64	72	124	1240	62584	1240	69040785
735	281	3964	-310	-978	-9084	64	72	124	1241	62611	1241	69040792
760	288	3974	-311	-983	-9047	64	72	124	1242	62640	1242	69040793
755	293	3973	-312	-978	-9069	51	69	125	1243	62734	1243	69040800
746	288	3994	-311	-975	-9064	51	69	125	1244	62761	1244	69040800
729	281	3988	-316	-979	-9081	51	69	125	1245	62790	1245	69040806
739	262	3976	-314	-976	-9110	59	69	121	1246	62884	1246	69040806
732	264	4001	-314	-974	-9095	59	69	121	1247	62911	1247	69040807
736	277	3997	-310	-981	-9086	59	69	121	1248	62940	1248	69040813
737	285	3984	-314	-978	-9069	51	71	121	1249	63034	1249	69040815
756	275	3998	-314	-978	-9046	51	71	121	1250	63061	1250	69040823
760	259	3996	-310	-971	-9057	51	71	121	1251	63090	1251	69040825
739	278	3974	-311	-968	-9056	54	66	120	1252	63184	1252	69040825
749	297	3967	-310	-975	-9075	54	66	120	1253	63211	1253	69040826
743	296	3974	-311	-975	-9046	54	66	120	1254	63240	1254	69040826
738	284	3969	-310	-980	-9049	53	61	125	1255	63334	1255	69040832
740	286	3972	-307	-983	-9041	53	61	125	1256	63361	1256	69040833
733	306	3987	-307	-975	-9086	53	61	125	1257	63390	1257	69040833
733	296	4002	-307	-975	-9078	49	61	109	1258	63484	1258	69040839
727	289	4005	-312	-981	-9098	49	61	109	1259	63511	1259	69040839
729	281	3971	-316	-981	-9088	49	61	109	1260	63540	1260	69040845
738	284	3983	-315	-986	-9068	42	66	120	1261	63634	1261	69040845
755	284	3993	-312	-978	-9079	42	66	120	1262	63661	1262	69040845
744	288	3975	-311	-981	-9091	42	66	120	1263	63690	1263	69040852
725	287	3974	-313	-984	-9088	42	56	110	1264	63784	1264	69040853
721	281	3972	-312	-974	-9090	42	56	110	1265	63811	1265	69040858
743	278	3986	-310	-985	-9101	42	56	110	1266	63840	1266	69040859
744	280	3983	-310	-981	-9078	34	60	116	1267	63934	1267	69040859
751	298	3986	-310	-980	-9085	34	60	116	1268	63961	1268	69040867
720	297	3980	-310	-981	-9091	34	60	116	1269	63990	1269	69040868
737	283	3977	-309	-978	-9054	38	54	108	1270	64084	1270	69040872
740	280	3964	-306	-977	-9078	38	54	108	1271	64111	1271	69040872
733	289	3969	-307	-979	-9093	38	54	108	1272	64140	1272	69040873
745	288	3981	-310	-980	-9098	35	57	109	1273	64234	1273	69040878
744	284	3994	-312	-980	-9112	35	57	109	1274	64261	1274	69040878
750	285	3991	-318	-977	-9101	35	57	109	1275	64290	1275	69040884
736	275	3998	-312	-976	-9078	30	52	100	1276	64384	1276	69040885
730	279	3982	-307	-978	-9119	30	52	100	1277	64411	1277	69040917
729	288	3970	-312	-970	-9108	30	52	100	1278	64440	1278	69040917
746	291	3988	-310	-982	-9064	32	58	102	1279	64534	1279	69040918
740	279	3987	-311	-984	-9080	32	58	102	1280	64561	1280	69040920
748	290	3980	-310	-974	-9071	32	58	102	1281	64590	1281	69040920
754	304	3964	-306	-974	-9079	28	48	98	1282	64684	1282	69040922
739	297	3957	-307	-972	-9107	28	48	98	1283	64711	1283	69040923
721	299	3986	-312	-973	-9118	28	48	98	1284	64740	1284	69040924
720	295	3973	-310	-982	-9095	25	57	97	1285	64834	1285	69040925
733	295	3976	-308	-979	-9098	25	57	97	1286	64861	1286	69040925
750	291	3992	-312	-983	-9068	25	57	97	1287	64890	1287	69040927
737	300	3976	-313	-983	-9100	17	55	91	1288	64984	1288	69040928
724	301	3988	-311	-975	-9103	17	55	91	1289	65011	1289	69040928
721	294	4015	-310	-986	-9090	17	55	91	1290	65040	1290	69040930
721	289	3995	-310	-985	-9103	24	56	90	1291	65134	1291	69040930
739	303	4016	-312	-982	-9082	24	56	90	1292	65161	1292	69040932
740	302	3990	-312	-980	-9057	24	56	90	1293	65190	1293	69040933
743	303	3970	-315	-971	-9072	19	53	87	1294	65284	1294	69040933
738	292	3955	-313	-980	-9044	19	53	87	1295	65311	1295	69040935
718	297	3989	-307	-973	-9084	19	53	87	1296	65340	1296	69040935
728	295	3994	-308	-972	-9083	10	48	90	1297	65434	1297	69040942
742	301	3984	-308	-982	-9049	10	48	90	1298	65461	1298	69040943
754	302	4005	-314	-971	-9056	10	48	90	1299	65490	1299	69040943
741	299	4005	-312	-973	-9089	11	53	85	1300	65584	1300	69040949
714	286	4000	-311	-974	-9052	11	53	85	1301	65611	1301	69040949
757	293	3998	-308	-971	-9092	11	53	85	1302	65640	1302	69040956
729	293	3994	-309	-979	-9106	16	56	84	1303	65734	1303	69040956
733	297	3997	-315	-982	-9104	16	56	84	1304	65761	1304	69040962
741	292	3989	-317	-983	-9084	16	56	84	1305	65784	1305	69040962
749	287	3994	-312	-986	-9083	6	52	88	1306	65882	1306	69040963
716	304	3987	-311	-977	-9103	6	52	88	1307	65911	1307	69040968
718	286	4007	-316	-981	-9110	6	52	88	1308	66029	1308	69040969
709	284	3980	-314	-979	-9106	6	52	88	1309	66147	1309	69040972
726	283	3985	-310	-980	-9104	11	55	79	1310	66241	1310	69040972
730	294	4001	-306	-981	-9063	11	55	79	1311	66251	1311	69040973
736	312	3988	-309	-980	-9073	11	55	79	1312	66369	1312	69040980
742	320	3983	-310	-978	-9058	11	55	79	1313	66487	1313	69040980
741	307	4022	-311	-981	-9105	4	54	82	1314	66581	1314	69040983
722	292	4029	-309	-979	-9105	4	54	82	1315	66591	1315	69040984
717	297	3986	-308	-979	-9089	4	54	82	1316	66709	1316	69040984
741	298	3989	-307	-984	-9068	4	54	82	1317	66827	1317	69040990
728	313	3984	-308	-981	-9085	6	58	78	1318	66921	1318	69040990
740	294	3986	-312	-978	-9102	6	58	78	1319	66931	1319	69041020
727	278	3987	-313	-983	-9076	6	58	78	1320	67049	1320	69041022
724	298	3993	-315	-978	-9085	6	58	78	1321	67166	1321	69041022
718	294	3995	-306	-975	-9108	0	52	80	1322	67260	1322	69041023
714	289	3995	-302	-980	-9134	0	52	80	1323	67265	1323	69041023
696	295	3984	-310	-979	-9128	0	52	80	1324	67383	1324	69041025
718	291	3986	-315	-976	-9086	0	52	80	1325	67501	1325	69041025
741	279	3982	-314	-980	-9075	2	50	70	1326	67595	1326	69041026
743	293	3995	-311	-977	-9070	2	50	70	1327	67605	1327	69041027
731	283	3999	-309	-969	-9042	2	50	70	1328	67733	1328	69041028
710	291	3977	-307	-978	-9088	-4	60	76	1329	67738	1329	69041030
703	283	3972	-308	-978	-9123	-4	60	76	1330	67748	1330	69041031
716	289	3986	-311	-977	-9091	-4	60	76	1331	67752	1331	69041032
712	302	3975	-307	-987	-9056	-8	62	76	1332	67757	1332	69041033
711	303	3987	-307	-982	-9091	-8	62	76	1333	67767	1333	69041033
709	316	3986	-309	-976	-9091	-8	62	76	1334	67771	1334	69041035
738	287	3990	-314	-983	-9063	-9	53	71	1335	67776	1335	69041035
724	284	3994	-314	-982	-9116	-9	53	71	1336	67786	1336	69041038
723	283	3983	-313	-989	-9092	-9	53	71	1337	67789	1337	69041039
734	303	3991	-308	-977	-9098	-9	53	75	1338	67794	1338	69041039
729	313	4008	-308	-979	-9096	-9	53	75	1339	67805	1339	69041046
724	299	3988	-309	-982	-9057	-9	53	75	1340	67808	1340	69041046
724	297	3985	-310	-978	-9110	-13	63	77	1341	67813	1341	69041052
719	311	4003	-306	-979	-9154	-13	63	77	1342	67824	1342	69041052
728	301	3996	-308	-981	-9111	-13	63	77	1343	67827	1343	69041053
716	298	3988	-309	-970	-9079	-16	60	72	1344	67832	1344	69041061
726	290	3968	-311	-977	-9098	-16	60	72	1345	67842	1345	69041061
732	291	3990	-314	-982	-9065	-16	60	72	1346	67846	1346	69041066
730	285	4003	-316	-979	-9072	-20	64	78	1347	67851	1347	69041066
746	295	3986	-314	-982	-9108	-20	64	78	1348	67861	1348	69041067
728	305	4015	-313	-977	-9113	-20	64	78	1349	67865	1349	69041070
702	295	3999	-315	-979	-9084	-18	60	78	1350	67870	1350	69041070
697	295	4009	-313	-982	-9078	-18	60	78	1351	67880	1351	69041079
721	285	4004	-312	-977	-9088	-18	60	78	1352	67883	1352	69041079
711	304	3979	-305	-982	-9091	-23	63	71	1353	67888	1353	69041083
717	289	3980	-308	-978	-9100	-23	63	71	1354	67899	1354	69041085
701	282	3986	-312	-979	-9134	-23	63	71	1355	67902	1355	69041086
708	289	3977	-314	-985	-9093	-24	62	78	1356	67907	1356	69041093
702	285	3966	-311	-982	-9076	-24	62	78	1357	67918	1357	69041094
707	287	3970	-308	-981	-9088	-24	62	78	1358	67921	1358	69041094
711	301	3941	-308	-978	-9074	-25	69	75	1359	67926	1359	69041099
711	291	3948	-312	-975	-9077	-25	69	75	1360	67936	1360	69041099
718	280	3982	-317	-982	-9091	-25	69	75	1361	67940	1361	69041103
692	291	3996	-312	-978	-9105	-27	59	75	1362	67945	1362	69041103
717	302	3988	-308	-975	-9072	-27	59	75	1363	67955	1363	69041111
723	303	4003	-306	-979	-9082	-27	59	75	1364	67958	1364	69041112
733	293	4007	-312	-973	-9084	-31	69	79	1365	67963	1365	69041112
707	283	3986	-316	-977	-9102	-31	69	79	1366	67974	1366	69041117
713	292	3972	-311	-976	-9105	-31	69	79	1367	67977	1367	69041117
695	278	3969	-308	-970	-9116	-32	66	74	1368	67982	1368	69041123
703	279	3971	-309	-978	-9070	-32	66	74	1369	67992	1369	69041124
722	280	3979	-312	-979	-9071	-32	66	74	1370	67996	1370	69041124
712	285	4014	-309	-980	-9084	-35	71	75	1371	68001	1371	69041131
701	282	4018	-310	-979	-9069	-35	71	75	1372	68011	1372	69041131
689	289	3997	-310	-971	-9100	-35	71	75	1373	68014	1373	69041137
698	291	3999	-313	-978	-9110	-32	68	74	1374	68019	1374	69041137
704	286	3978	-315	-984	-9072	-32	68	74	1375	68030	1375	69041138
717	281	3989	-315	-981	-9054	-32	68	74	1376	68033	1376	69041142
733	302	3992	-313	-982	-9043	-41	73	83	1377	68038	1377	69041144
721	295	3983	-317	-978	-9063	-41	73	83	1378	68049	1378	69041151
721	281	4008	-319	-975	-9110	-41	73	83	1379	68052	1379	69041152
699	268	4002	-315	-982	-9093	-42	70	74	1380	68057	1380	69041153
683	270	3996	-313	-976	-9089	-42	70	74	1381	68067	1381	69041156
691	279	3999	-312	-976	-9107	-42	70	74	1382	68070	1382	69041157
678	289	3994	-306	-980	-9098	-40	74	76	1383	68076	1383	69041162
698	272	4009	-310	-974	-9088	-40	74	76	1384	68086	1384	69041163
696	265	3997	-312	-980	-9076	-40	74	76	1385	68089	1385	69041163
706	280	3978	-311	-978	-9107	-46	78	74	1386	68094	1386	69041172
705	277	3992	-313	-976	-9113	-46	78	74	1387	68105	1387	69041172
691	288	3986	-310	-976	-9056	-46	78	74	1388	68108	1388	69041173
711	303	3997	-312	-979	-9069	-48	82	80	1389	68113	1389	69041174
722	300	4002	-312	-984	-9093	-48	82	80	1390	68123	1390	69041182
729	292	3982	-312	-981	-9066	-48	82	80	1391	68126	1391	69041182
712	281	4000	-315	-976	-9109	-43	83	79	1392	68131	1392	69041183
686	272	4001	-317	-984	-9105	-43	83	79	1393	68142	1393	69041188
703	282	4001	-317	-980	-9114	-43	83	79	1394	68145	1394	69041189
710	262	4000	-311	-983	-9120	-50	82	78	1395	68150	1395	69041195
698	254	3983	-313	-980	-9095	-50	82	78	1396	68161	1396	69041195
707	275	3972	-313	-972	-9058	-50	82	78	1397	68164	1397	69041195
712	276	3983	-314	-982	-9072	-56	84	74	1398	68169	1398	69041203
713	275	3997	-318	-985	-9090	-56	84	74	1399	68179	1399	69041203
702	275	4007	-318	-981	-9103	-56	84	74	1400	68183	1400	69041208
700	286	3992	-308	-980	-9074	-56	84	78	1401	68188	1401	69041212
701	299	3979	-301	-974	-9098	-56	84	78	1402	68198	1402	69041212
696	299	3989	-305	-980	-9080	-56	84	78	1403	68201	1403	69041213
702	290	4006	-310	-985	-9088	-58	92	76	1404	68206	1404	69041214
702	289	3982	-311	-980	-9081	-58	92	76	1405	68217	1405	69041222
707	275	4003	-314	-981	-9058	-58	92	76	1406	68220	1406	69041223
691	279	3996	-305	-974	-9096	-58	88	78	1407	68225	1407	69041223
709	280	3995	-304	-976	-9079	-58	88	78	1408	68236	1408	69041227
698	277	4004	-308	-982	-9058	-58	88	78	1409	68239	1409	69041228
710	285	3993	-314	-978	-9084	-65	99	79	1410	68244	1410	69041235
730	295	3990	-311	-982	-9115	-65	99	79	1411	68254	1411	69041235
733	283	3992	-308	-983	-9107	-65	99	79	1412	68257	1412	69041235
718	277	3980	-316	-977	-9083	-65	101	79	1413	68263	1413	69041241
720	276	3973	-316	-979	-9079	-65	101	79	1414	68273	1414	69041241
710	277	3964	-312	-977	-9082	-65	101	79	1415	68276	1415	69041245
704	284	3995	-308	-980	-9082	-64	106	80	1416	68281	1416	69041245
713	279	4001	-311	-978	-9094	-64	106	80	1417	68292	1417	69041245
706	285	3975	-315	-976	-9085	-64	106	80	1418	68295	1418	69041253
733	284	4007	-316	-987	-9095	-64	106	76	1419	68300	1419	69041254
719	272	3968	-312	-979	-9093	-64	106	76	1420	68311	1420	69041260
709	294	3981	-305	-979	-9078	-64	106	76	1421	68314	1421	69041260
705	304	3986	-309	-982	-9073	-73	107	81	1422	68319	1422	69041266
694	289	3991	-315	-976	-9055	-73	107	81	1423	68329	1423	69041266
689	271	4004	-315	-975	-9086	-73	107	81	1424	68333	1424	69041267
707	279	3991	-309	-978	-9074	-74	110	78	1425	68338	1425	69041272
727	268	3999	-308	-970	-9080	-74	110	78	1426	68348	1426	69041273
716	279	3995	-308	-972	-9117	-74	110	78	1427	68351	1427	69041279
681	298	3995	-312	-976	-9077	-64	114	76	1428	68356	1428	69041282
685	281	4000	-313	-979	-9053	-64	114	76	1429	68367	1429	69041283
697	274	4000	-318	-987	-9098	-64	114	76	1430	68370	1430	69041284
703	277	3986	-313	-975	-9136	-70	120	82	1431	68375	1431	69041285
693	278	3986	-312	-973	-9096	-70	120	82	1432	68385	1432	69041293
692	276	3983	-310	-976	-9087	-70	120	82	1433	68389	1433	69041293
704	289	3985	-312	-976	-9100	-75	123	81	1434	68394	1434	69041294
711	281	3974	-310	-980	-9081	-75	123	81	1435	68404	1435	69041299
701	281	3971	-307	-982	-9098	-75	123	81	1436	68408	1436	69041299
717	281	3988	-317	-978	-9106	-68	128	76	1437	68413	1437	69041304
725	280	3992	-317	-983	-9089	-68	128	76	1438	68423	1438	69041305
719	268	4001	-318	-984	-9110	-68	128	76	1439	68426	1439	69041305
687	269	4021	-311	-978	-9085	-71	135	79	1440	68431	1440	69041312
702	282	4020	-310	-975	-9057	-71	135	79	1441	68442	1441	69041312
706	282	4016	-310	-969	-9065	-71	135	79	1442	68445	1442	69041318
696	257	3980	-317	-984	-9104	-74	132	84	1443	68450	1443	69041319
697	253	3962	-317	-980	-9100	-74	132	84	1444	68461	1444	69041319
720	262	3978	-312	-977	-9105	-74	132	84	1445	68464	1445	69041322
685	261	3998	-304	-979	-9065	-72	140	80	1446	68469	1446	69041322
686	269	4008	-310	-974	-9064	-72	140	80	1447	68479	1447	69041331
687	278	4000	-313	-977	-9054	-72	140	80	1448	68483	1448	69041331
713	282	3979	-316	-980	-9085	-73	139	83	1449	68488	1449	69041337
716	278	3979	-312	-975	-9093	-73	139	83	1450	68499	1450	69041337
701	285	4000	-310	-978	-9082	-73	139	83	1451	68502	1451	69041338
683	265	4005	-307	-975	-9083	-70	148	80	1452	68507	1452	69041343
691	269	4010	-306	-980	-9076	-70	148	80	1453	68517	1453	69041344
697	253	4008	-307	-983	-9065	-70	148	80	1454	68521	1454	69041351
698	259	3982	-307	-974	-9061	-72	152	84	1455	68526	1455	69041351
703	268	3979	-311	-983	-9100	-72	152	84	1456	68536	1456	69041351
713	270	4003	-316	-981	-9088	-72	152	84	1457	68539	1457	69041354
693	286	3987	-310	-980	-9068	-71	151	83	1458	68544	1458	69041355
697	280	4000	-309	-983	-9074	-71	151	83	1459	68555	1459	69041363
691	281	3990	-307	-985	-9056	-71	151	83	1460	68558	1460	69041364
706	285	3996	-308	-985	-9088	-72	162	86	1461	68563	1461	69041364
715	274	4008	-316	-987	-9102	-72	162	86	1462	68574	1462	69041370
723	268	3976	-315	-981	-9088	-72	162	86	1463	68577	1463	69041370
718	274	4006	-314	-979	-9081	-72	160	88	1464	68582	1464	69041376
711	276	4014	-309	-979	-9063	-72	160	88	1465	68592	1465	69041376
713	279	4027	-313	-974	-9029	-72	160	88	1466	68596	1466	69041376
707	270	4004	-313	-982	-9079	-70	166	84	1467	68601	1467	69041383
697	260	4008	-315	-982	-9099	-70	166	84	1468	68611	1468	69041384
696	250	4008	-314	-985	-9065	-70	166	84	1469	68614	1469	69041389
713	256	3984	-310	-982	-9060	-69	171	85	1470	68619	1470	69041390
702	262	3982	-311	-973	-9087	-69	171	85	1471	68630	1471	69041390
718	252	3993	-308	-974	-9075	-69	171	85	1472	68633	1472	69041394
709	245	3983	-310	-974	-9067	-64	176	90	1473	68638	1473	69041394
704	268	3985	-308	-975	-9082	-64	176	90	1474	68648	1474	69041402
709	267	3983	-306	-981	-9081	-64	176	90	1475	68652	1475	69041403
708	253	3984	-312	-974	-9107	-63	175	87	1476	68657	1476	69041403
714	268	3985	-313	-979	-9103	-63	175	87	1477	68667	1477	69041408
730	267	3976	-313	-986	-9082	-63	175	87	1478	68670	1478	69041409
691	267	3966	-306	-969	-9094	-63	181	83	1479	68675	1479	69041416
685	272	3992	-305	-977	-9097	-63	181	83	1480	68686	1480	69041416
697	281	3984	-317	-977	-9117	-63	181	83	1481	68689	1481	69041422
705	242	3974	-320	-983	-9125	-61	185	85	1482	68694	1482	69041422
718	246	3963	-317	-985	-9106	-61	185	85	1483	68704	1483	69041423
703	266	3969	-312	-974	-9111	-61	185	85	1484	68708	1484	69041426
707	285	4005	-306	-971	-9061	-58	190	90	1485	68713	1485	69041426
699	277	3994	-309	-978	-9067	-58	190	90	1486	68723	1486	69041435
688	258	4010	-312	-977	-9124	-58	190	90	1487	68727	1487	69041435
702	245	3986	-316	-988	-9113	-54	186	88	1488	68732	1488	69041435
711	256	4006	-311	-985	-9081	-54	186	88	1489	68742	1489	69041441
713	268	3974	-309	-975	-9083	-54	186	88	1490	68745	1490	69041441
718	256	4017	-307	-977	-9075	-56	192	88	1491	68750	1491	69041447
714	275	3996	-311	-978	-9060	-56	192	88	1492	68761	1492	69041447
702	276	4005	-313	-983	-9094	-56	192	88	1493	68764	1493	69041448
707	267	3969	-309	-979	-9122	-54	198	92	1494	68769	1494	69041455
716	261	3999	-312	-976	-9103	-54	198	92	1495	68779	1495	69041455
697	251	4023	-308	-980	-9109	-54	198	92	1496	68783	1496	69041461
709	254	4021	-308	-977	-9068	-51	197	93	1497	68788	1497	69041461
693	250	4039	-309	-978	-9059	-51	197	93	1498	68798	1498	69041462
699	243	4014	-308	-985	-9097	-51	197	93	1499	68801	1499	69041464
713	252	3995	-312	-979	-9100	-42	200	92	1500	68807	1500	69041465
685	263	3996	-310	-983	-9079	-42	200	92	1501	68817	1501	69041473
712	277	3999	-312	-982	-9100	-42	200	92	1502	68820	1502	69041474
713	253	3997	-312	-974	-9075	-50	204	92	1503	68825	1503	69041474
705	255	3995	-309	-977	-9072	-50	204	92	1504	68836	1504	69041481
715	260	3973	-307	-976	-9065	-50	204	92	1505	68839	1505	69041482
706	257	3986	-312	-981	-9078	-42	210	96	1506	68844	1506	69041486
694	257	3985	-319	-987	-9098	-42	210	96	1507	68855	1507	69041488
693	257	3986	-319	-984	-9122	-42	210	96	1508	68858	1508	69041489
719	258	3981	-306	-986	-9069	-44	212	94	1509	68863	1509	69041493
705	252	4004	-307	-982	-9075	-44	212	94	1510	68874	1510	69041494
702	242	3992	-312	-977	-9091	-44	212	94	1511	68877	1511	69041497
701	263	4011	-313	-991	-9099	-34	212	96	1512	68882	1512	69041498
715	259	4008	-312	-983	-9096	-34	212	96	1513	68892	1513	69041507
710	248	3988	-310	-975	-9084	-34	212	96	1514	68896	1514	69041508
714	239	3969	-309	-981	-9052	-35	211	93	1515	68901	1515	69041509
716	246	3983	-310	-976	-9076	-35	211	93	1516	68911	1516	69041512
715	244	4011	-315	-980	-9060	-35	211	93	1517	68915	1517	69041512
689	264	3989	-308	-976	-9075	-29	217	97	1518	68920	1518	69041518
719	259	3991	-308	-975	-9096	-29	217	97	1519	68930	1519	69041518
721	257	3999	-312	-983	-9084	-29	217	97	1520	68934	1520	69041518
728	256	3977	-314	-971	-9079	-29	217	99	1521	68939	1521	69041526
718	257	3983	-311	-977	-9084	-29	217	99	1522	68949	1522	69041526
707	246	3984	-307	-978	-9044	-29	217	99	1523	68953	1523	69041532
694	268	4001	-310	-979	-9073	-26	226	94	1524	68958	1524	69041532
707	249	3991	-310	-982	-9106	-26	226	94	1525	68968	1525	69041532
717	241	4011	-311	-983	-9094	-26	226	94	1526	68971	1526	69041536
726	252	3977	-309	-985	-9099	-21	223	99	1527	68976	1527	69041536
693	245	4004	-311	-985	-9105	-21	223	99	1528	68987	1528	69041544
695	239	4022	-310	-976	-9063	-21	223	99	1529	68990	1529	69041545
701	250	3995	-309	-979	-9089	-14	226	98	1530	68995	1530	69041545
705	252	3999	-313	-986	-9083	-14	226	98	1531	69006	1531	69041552
715	236	3996	-310	-986	-9076	-14	226	98	1532	69009	1532	69041552
727	255	3996	-310	-986	-9060	-9	221	103	1533	69014	1533	69041557
740	243	3986	-314	-981	-9095	-9	221	103	1534	69024	1534	69041557
715	255	4002	-312	-980	-9063	-9	221	103	1535	69028	1535	69041558
702	253	4000	-312	-975	-9069	-9	235	99	1536	69033	1536	69041565
701	241	3991	-312	-972	-9109	-9	235	99	1537	69043	1537	69041565
693	225	4015	-309	-980	-9098	-9	235	99	1538	69047	1538	69041568
702	238	3977	-310	-971	-9083	2	230	102	1539	69052	1539	69041569
723	248	3977	-308	-976	-9084	2	230	102	1540	69062	1540	69041569
727	254	3992	-310	-978	-9068	2	230	102	1541	69065	1541	69041577
707	226	3991	-313	-972	-9077	2	232	100	1542	69070	1542	69041578
703	228	3991	-307	-974	-9096	2	232	100	1543	69081	1543	69041583
699	243	4002	-304	-982	-9105	2	232	100	1544	69084	1544	69041584
710	261	3966	-312	-979	-9133	-1	231	103	1545	69089	1545	69041590
733	247	3969	-315	-986	-9129	-1	231	103	1546	69100	1546	69041590
738	241	3979	-313	-986	-9102	-1	231	103	1547	69103	1547	69041590
708	239	3966	-305	-971	-9083	8	232	104	1548	69108	1548	69041597
711	247	4008	-305	-981	-9052	8	232	104	1549	69118	1549	69041597
713	254	3993	-306	-980	-9087	8	232	104	1550	69122	1550	69041603
708	250	3990	-313	-984	-9102	10	230	100	1551	69127	1551	69041605
706	233	3982	-315	-983	-9106	10	230	100	1552	69137	1552	69041605
717	228	3969	-314	-978	-9089	10	230	100	1553	69140	1553	69041607
726	246	3993	-309	-974	-9086	14	234	104	1554	69145	1554	69041608
722	253	3991	-310	-979	-9066	14	234	104	1555	69156	1555	69041616
728	253	3988	-312	-976	-9098	14	234	104	1556	69159	1556	69041617
713	254	3995	-311	-981	-9100	16	232	98	1557	69164	1557	69041617
720	252	3985	-307	-978	-9091	16	232	98	1558	69169	1558	69041622
714	238	3969	-308	-972	-9095	16	232	98	1559	69292	1559	69041623
696	244	4001	-308	-972	-9095	19	237	103	1560	69423	1560	69041628
722	248	3991	-312	-981	-9106	19	237	103	1561	69454	1561	69041629
749	241	3981	-311	-984	-9061	19	237	103	1562	69483	1562	69041630
748	243	3979	-310	-980	-9073	20	234	102	1563	69577	1563	69041660
744	262	3985	-310	-976	-9081	20	234	102	1564	69604	1564	69041660
727	249	3989	-314	-977	-9075	20	234	102	1565	69633	1565	69041662
744	244	3984	-314	-979	-9079	27	231	105	1566	69727	1566	69041663
736	231	3996	-314	-981	-9063	27	231	105	1567	69754	1567	69041664
737	237	4006	-312	-979	-9060	27	231	105	1568	69783	1568	69041665
726	240	3979	-309	-974	-9097	35	233	105	1569	69877	1569	69041665
725	249	3994	-310	-981	-9109	35	233	105	1570	69904	1570	69041667
718	244	3976	-317	-979	-9089	35	233	105	1571	69933	1571	69041668
709	249	3987	-315	-977	-9071	37	237	103	1572	70027	1572	69041669
721	249	3989	-311	-981	-9050	37	237	103	1573	70054	1573	69041670
706	257	3992	-312	-974	-9084	37	237	103	1574	70083	1574	69041672
712	237	3971	-309	-984	-9057	41	237	101	1575	70177	1575	69041672
726	241	3969	-306	-989	-9102	41	237	101	1576	70204	1576	69041673
739	244	3985	-310	-979	-9118	41	237	101	1577	70233	1577	69041675
742	239	3990	-310	-979	-9070	43	237	107	1578	70327	1578	69041676
722	250	4002	-312	-970	-9078	43	237	107	1579	70354	1579	69041676
722	266	3987	-312	-978	-9104	43	237	107	1580	70383	1580	69041682
735	241	3996	-312	-981	-9086	52	238	106	1581	70477	1581	69041682
732	242	3988	-305	-974	-9110	52	238	106	1582	70504	1582	69041688
717	250	3989	-309	-977	-9098	52	238	106	1583	70533	1583	69041689
733	245	4006	-313	-972	-9086	48	222	110	1584	70627	1584	69041689
733	240	4001	-314	-968	-9101	48	222	110	1585	70654	1585	69041692
738	233	4008	-312	-979	-9066	48	222	110	1586	70683	1586	69041693
741	234	3996	-311	-973	-9075	59	227	105	1587	70777	1587	69041700
730	231	3998	-308	-974	-9091	59	227	105	1588	70804	1588	69041700
735	256	3997	-310	-976	-9078	59	227	105	1589	70833	1589	69041700
738	252	3976	-311	-978	-9061	61	229	115	1590	70927	1590	69041707
755	254	3985	-312	-983	-9090	61	229	115	1591	70954	1591	69041707
738	261	3987	-309	-975	-9095	61	229	115	1592	70983	1592	69041713
743	267	3969	-311	-978	-9088	67	235	103	1593	71077	1593	69041714
739	255	3988	-313	-983	-9119	67	235	103	1594	71104	1594	69041714
722	249	3974	-311	-981	-9087	67	235	103	1595	71133	1595	69041721
744	240	3969	-312	-985	-9088	70	226	112	1596	71227	1596	69041721
740	248	3974	-310	-983	-9105	70	226	112	1597	71254	1597	69041725
750	256	3971	-310	-973	-9100	70	226	112	1598	71283	1598	69041726
752	253	3980	-309	-979	-9073	74	230	110	1599	71377	1599	69041734
738	241	3988	-310	-979	-9101	74	230	110	1600	71404	1600	69041734
734	237	3978	-310	-974	-9101	74	230	110	1601	71433	1601	69041735
733	253	3972	-311	-980	-9101	83	223	109	1602	71527	1602	69041743
738	248	3978	-310	-973	-9120	83	223	109	1603	71554	1603	69041744
754	261	3985	-312	-984	-9061	83	223	109	1604	71583	1604	69041747
774	261	3985	-312	-983	-9079	83	227	115	1605	71677	1605	69041748
771	268	4001	-314	-973	-9075	83	227	115	1606	71704	1606	69041750
736	261	4003	-308	-976	-9101	83	227	115	1607	71733	1607	69041753
737	255	4005	-313	-979	-9102	88	218	110	1608	71827	1608	69041753
741	257	3997	-314	-982	-9081	88	218	110	1609	71854	1609	69041761
741	243	3979	-315	-979	-9107	88	218	110	1610	71883	1610	69041761
745	260	3986	-313	-979	-9122	97	211	113	1611	71977	1611	69041762
753	270	3982	-313	-983	-9085	97	211	113	1612	72004	1612	69041763
746	246	3983	-312	-973	-9066	97	211	113	1613	72033	1613	69041764
747	241	4007	-314	-978	-9109	86	210	114	1614	72127	1614	69041771
735	244	3991	-315	-984	-9115	86	210	114	1615	72154	1615	69041771
741	257	3989	-313	-974	-9084	86	210	114	1616	72183	1616	69041771
727	268	3986	-307	-975	-9071	97	209	113	1617	72277	1617	69041778
734	255	4020	-307	-979	-9052	97	209	113	1618	72304	1618	69041779
747	244	4013	-310	-984	-9093	97	209	113	1619	72333	1619	69041784
754	256	3998	-312	-986	-9095	101	209	117	1620	72427	1620	69041785
751	253	3985	-312	-981	-9092	101	209	117	1621	72454	1621	69041785
734	276	3991	-309	-974	-9068	101	209	117	1622	72483	1622	69041792
740	245	4005	-306	-980	-9079	105	203	117	1623	72577	1623	69041792
741	254	4009	-311	-978	-9074	105	203	117	1624	72604	1624	69041797
745	251	3993	-312	-979	-9073	105	203	117	1625	72633	1625	69041798
759	253	3994	-309	-976	-9083	109	197	121	1626	72727	1626	69041798
751	254	3965	-307	-970	-9078	109	197	121	1627	72754	1627	69041804
712	255	3996	-312	-981	-9076	109	197	121	1628	72783	1628	69041804
735	241	3991	-314	-976	-9065	114	190	120	1629	72877	1629	69041811
736	237	3994	-320	-974	-9067	114	190	120	1630	72904	1630	69041813
728	256	3998	-312	-977	-9092	114	190	120	1631	72933	1631	69041817
736	254	4000	-307	-973	-9101	117	197	117	1632	73027	1632	69041818
730	252	3991	-308	-976	-9092	117	197	117	1633	73054	1633	69041818
740	243	4015	-312	-980	-9096	117	197	117	1634	73083	1634	69041824
743	247	4003	-312	-975	-9099	111	193	129	1635	73177	1635	69041825
737	257	3992	-312	-980	-9101	111	193	129	1636	73204	1636	69041832
756	250	3989	-310	-976	-9071	111	193	129	1637	73233	1637	69041832
746	250	3960	-311	-982	-9091	124	186	124	1638	73327	1638	69041832
742	256	3950	-315	-988	-9100	124	186	124	1639	73354	1639	69041834
746	248	4003	-311	-974	-9112	124	186	124	1640	73383	1640	69041835
732	255	4009	-309	-977	-9104	118	180	130	1641	73477	1641	69041842
718	270	3998	-307	-978	-9099	118	180	130	1642	73504	1642	69041842
742	263	3981	-313	-975	-9113	118	180	130	1643	73533	1643	69041843
751	259	3990	-314	-984	-9087	131	179	127	1644	73627	1644	69041850
742	253	4002	-313	-984	-9080	131	179	127	1645	73654	1645	69041850
754	260	3986	-306	-978	-9076	131	179	127	1646	73683	1646	69041856
739	263	3979	-310	-983	-9066	124	176	130	1647	73777	1647	69041856
762	265	3991	-308	-976	-9099	124	176	130	1648	73804	1648	69041856
745	245	3992	-313	-983	-9080	124	176	130	1649	73833	1649	69041862
736	256	3999	-313	-979	-9071	136	170	138	1650	73927	1650	69041863
735	255	4015	-313	-975	-9113	136	170	138	1651	73954	1651	69041869
754	265	4010	-314	-974	-9110	136	170	138	1652	73983	1652	69041870
733	269	3991	-314	-976	-9089	123	171	137	1653	74077	1653	69041870
741	282	3999	-314	-977	-9090	123	171	137	1654	74104	1654	69041873
741	275	4011	-313	-981	-9116	123	171	137	1655	74133	1655	69041874
754	278	4004	-313	-973	-9070	133	159	137	1656	74227	1656	69041882
733	250	3982	-311	-979	-9098	133	159	137	1657	74254	1657	69041882
753	263	3975	-312	-980	-9096	133	159	137	1658	74283	1658	69041883
744	248	3966	-314	-971	-9070	127	153	143	1659	74377	1659	69041888
715	248	3963	-312	-971	-9059	127	153	143	1660	74404	1660	69041889
733	264	4009	-309	-973	-9084	127	153	143	1661	74433	1661	69041894
752	261	4014	-307	-976	-9066	130	150	146	1662	74527	1662	69041895
741	264	3995	-306	-983	-9082	130	150	146	1663	74554	1663	69041902
731	251	3986	-310	-972	-9121	130	150	146	1664	74583	1664	69041902
743	257	3988	-310	-978	-9136	126	142	144	1665	74677	1665	69041903
752	259	3990	-310	-978	-9108	126	142	144	1666	74704	1666	69041906
753	272	3979	-307	-977	-9086	126	142	144	1667	74733	1667	69041906
756	260	3987	-313	-984	-9064	130	140	150	1668	74821	1668	69041913
755	265	3968	-312	-973	-9080	130	140	150	1669	74854	1669	69041914
751	256	3973	-313	-980	-9073	130	140	150	1670	74883	1670	69041914
757	266	3995	-310	-980	-9107	126	132	142	1671	74977	1671	69041921
765	276	4035	-310	-974	-9087	126	132	142	1672	75004	1672	69041921
760	266	3991	-314	-983	-9096	126	132	142	1673	75033	1673	69041927
761	238	3993	-315	-980	-9072	127	129	153	1674	75127	1674	69041928
765	242	3991	-314	-979	-9085	127	129	153	1675	75154	1675	69041928
757	267	3985	-310	-984	-9106	127	129	153	1676	75183	1676	69041935
752	264	3994	-311	-979	-9122	127	119	145	1677	75277	1677	69041935
745	267	3994	-311	-977	-9098	127	119	145	1678	75304	1678	69041943
753	276	3993	-312	-982	-9078	127	119	145	1679	75333	1679	69041949
747	277	3977	-312	-979	-9066	114	126	160	1680	75427	1680	69041952
756	274	3975	-311	-981	-9076	114	126	160	1681	75454	1681	69041953
744	278	3987	-311	-977	-9076	114	126	160	1682	75483	1682	69041953
745	280	4018	-311	-978	-9073	119	111	143	1683	75577	1683	69041954
752	264	3996	-310	-982	-9109	119	111	143	1684	75604	1684	69041954
735	274	3981	-311	-970	-9061	119	111	143	1685	75633	1685	69041954
741	253	3985	-316	-980	-9098	112	114	156	1686	75727	1686	69041960
727	256	4002	-313	-984	-9091	112	114	156	1687	75754	1687	69041961
737	257	4017	-312	-971	-9075	112	114	156	1688	75783	1688	69041966
736	247	3990	-310	-977	-9096	106	106	144	1689	75877	1689	69041966
729	264	3973	-306	-974	-9106	106	106	144	1690	75904	1690	69041973
735	260	3992	-310	-976	-9109	106	106	144	1691	75933	1691	69041974
745	274	4003	-307	-978	-9099	101	105	159	1692	76027	1692	69041974
753	272	4018	-310	-976	-9085	101	105	159	1693	76054	1693	69041977
780	283	4015	-311	-985	-9065	101	105	159	1694	76077	1694	69041978
765	291	4005	-312	-981	-9096	96	102	150	1695	76171	1695	69041985
753	279	4028	-310	-976	-9097	96	102	150	1696	76203	1696	69041985
745	276	3997	-313	-982	-9100	96	102	150	1697	76232	1697	69041985
752	271	3998	-314	-974	-9074	91	105	153	1698	76326	1698	69041992
761	282	4017	-315	-975	-9070	91	105	153	1699	76353	1699	69041993
756	274	4002	-314	-971	-9064	91	105	153	1700	76382	1700	69041999
746	279	4004	-313	-970	-9051	89	91	145	1701	76476	1701	69041999
723	272	4025	-308	-976	-9100	89	91	145	1702	76503	1702	69041999
746	261	4015	-314	-978	-9084	89	91	145	1703	76526	1703	69042005
746	265	3989	-310	-978	-9097	89	95	145	1704	76620	1704	69042005
760	275	3982	-308	-977	-9062	89	95	145	1705	76653	1705	69042012
749	277	3976	-311	-974	-9094	89	95	145	1706	76681	1706	69042013
760	279	3975	-311	-974	-9107	84	86	142	1707	76775	1707	69042014
762	272	3975	-309	-979	-9112	84	86	142	1708	76802	1708	69042016
733	274	3987	-313	-973	-9108	84	86	142	1709	76825	1709	69042017
747	290	3981	-310	-980	-9090	85	91	135	1710	76919	1710	69042024
730	279	3981	-310	-978	-9069	85	91	135	1711	76951	1711	69042024
749	250	4004	-314	-981	-9064	85	91	135	1712	76980	1712	69042025
751	261	3992	-318	-981	-9059	80	82	136	1713	77074	1713	69042033
761	270	3993	-316	-975	-9103	80	82	136	1714	77101	1714	69042034
764	276	3978	-313	-975	-9093	80	82	136	1715	77130	1715	69042037
753	272	4003	-313	-979	-9098	72	88	130	1716	77224	1716	69042038
744	266	4012	-311	-978	-9077	72	88	130	1717	77251	1717	69042043
750	278	3984	-308	-981	-9076	72	88	130	1718	77280	1718	69042044
741	275	3997	-310	-976	-9068	75	81	135	1719	77374	1719	69042044
748	274	3993	-311	-973	-9107	75	81	135	1720	77401	1720	69042050
744	296	3990	-308	-975	-9116	75	81	135	1721	77430	1721	69042050
741	291	3989	-311	-969	-9104	73	79	127	1722	77524	1722	69042056
746	284	3987	-312	-975	-9098	73	79	127	1723	77551	1723	69042057
762	271	3974	-309	-971	-9080	73	79	127	1724	77580	1724	69042057
767	278	4001	-308	-971	-9090	65	77	139	1725	77674	1725	69042064
761	281	4001	-309	-977	-9100	65	77	139	1726	77701	1726	69042064
741	279	3985	-317	-978	-9101	65	77	139	1727	77730	1727	69042070
737	270	3990	-315	-977	-9111	67	69	121	1728	77824	1728	69042073
754	268	4006	-313	-984	-9100	67	69	121	1729	77851	1729	69042074
736	284	3981	-314	-974	-9061	67	69	121	1730	77880	1730	69042077
748	271	3954	-313	-979	-9056	63	73	125	1731	77974	1731	69042078
761	270	3977	-317	-980	-9068	63	73	125	1732	78001	1732	69042086
765	268	3997	-311	-977	-9105	63	73	125	1733	78030	1733	69042088
754	272	3990	-311	-978	-9100	58	64	118	1734	78124	1734	69042089
738	284	3986	-309	-969	-9084	58	64	118	1735	78151	1735	69042093
734	298	4008	-312	-974	-9058	58	64	118	1736	78180	1736	69042094
756	286	3988	-312	-977	-9044	63	67	133	1737	78274	1737	69042095
755	281	3979	-311	-978	-9053	63	67	133	1738	78301	1738	69042095
754	283	3983	-311	-984	-9071	63	67	133	1739	78330	1739	69042096
755	293	3975	-307	-976	-9112	53	65	111	1740	78424	1740	69042103
750	287	3976	-307	-974	-9090	53	65	111	1741	78451	1741	69042103
737	276	3973	-314	-981	-9078	53	65	111	1742	78480	1742	69042109
747	276	3953	-313	-984	-9042	53	65	123	1743	78574	1743	69042109
750	272	3970	-313	-986	-9016	53	65	123	1744	78601	1744	69042115
759	276	4009	-312	-976	-9074	53	65	123	1745	78624	1745	69042115
734	280	3979	-312	-972	-9095	56	64	120	1746	78718	1746	69042115
729	277	3987	-314	-981	-9098	56	64	120	1747	78751	1747	69042122
738	265	3988	-313	-975	-9081	56	64	120	1748	78779	1748	69042123
745	279	3984	-313	-977	-9085	47	61	123	1749	78873	1749	69042126
739	282	3969	-310	-984	-9060	47	61	123	1750	78900	1750	69042126
739	295	3975	-313	-972	-9068	47	61	123	1751	78929	1751	69042127
752	284	3982	-311	-970	-9103	38	52	110	1752	79023	1752	69042134
753	282	3986	-309	-975	-9085	38	52	110	1753	79050	1753	69042135
750	290	3993	-307	-977	-9076	38	52	110	1754	79079	1754	69042143
765	294	3974	-310	-981	-9065	47	57	105	1755	79173	1755	69042143
754	302	3971	-314	-980	-9077	47	57	105	1756	79200	1756	69042144
764	289	4014	-315	-982	-9062	47	57	105	1757	79229	1757	69042147
759	275	4015	-315	-980	-9090	43	57	113	1758	79323	1758	69042148
740	287	3998	-315	-972	-9102	43	57	113	1759	79350	1759	69042154
742	296	3996	-313	-976	-9072	43	57	113	1760	79379	1760	69042154
734	283	3995	-310	-979	-9068	46	54	108	1761	79473	1761	69042154
740	282	3979	-311	-970	-9083	46	54	108	1762	79500	1762	69042160
738	288	3997	-308	-984	-9077	46	54	108	1763	79529	1763	69042160
757	292	3994	-307	-976	-9088	33	59	103	1764	79623	1764	69042166
757	293	3991	-307	-970	-9085	33	59	103	1765	79650	1765	69042166
756	286	3990	-312	-978	-9107	33	59	103	1766	79679	1766	69042166
753	287	4000	-312	-974	-9092	34	58	104	1767	79773	1767	69042173
744	296	4003	-313	-979	-9078	34	58	104	1768	79800	1768	69042174
726	286	3962	-311	-977	-9082	34	58	104	1769	79829	1769	69042180
733	296	3964	-310	-974	-9063	29	51	101	1770	79923	1770	69042180
733	292	3989	-312	-978	-9080	29	51	101	1771	79950	1771	69042180
728	280	4001	-315	-973	-9112	29	51	101	1772	79979	1772	69042186
746	269	4005	-318	-975	-9072	32	50	102	1773	80073	1773	69042186
731	275	4002	-312	-979	-9091	32	50	102	1774	80100	1774	69042192
737	277	4001	-312	-980	-9097	32	50	102	1775	80129	1775	69042193
729	283	3983	-313	-977	-9081	21	57	99	1776	80223	1776	69042198
737	278	3971	-314	-981	-9101	21	57	99	1777	80250	1777	69042199
736	294	3964	-310	-977	-9100	21	57	99	1778	80279	1778	69042199
738	296	3982	-310	-981	-9108	22	50	98	1779	80373	1779	69042205
742	296	3998	-315	-981	-9117	22	50	98	1780	80400	1780	69042205
737	301	3986	-313	-981	-9062	22	50	98	1781	80429	1781	69042212
740	288	3985	-314	-982	-9077	17	51	93	1782	80523	1782	69042212
744	286	3999	-312	-974	-9078	17	51	93	1783	80550	1783	69042213
721	308	4001	-311	-975	-9095	17	51	93	1784	80579	1784	69042218
723	306	4008	-312	-977	-9076	21	51	93	1785	80673	1785	69042219
722	294	4011	-313	-974	-9075	21	51	93	1786	80700	1786	69042225
730	271	3995	-312	-984	-9095	21	51	93	1787	80729	1787	69042225
739	277	3962	-309	-973	-9065	17	51	93	1788	80823	1788	69042226
751	288	3942	-310	-972	-9062	17	51	93	1789	80850	1789	69042232
754	314	3996	-311	-980	-9090	17	51	93	1790	80879	1790	69042233
741	294	3989	-313	-973	-9110	12	54	82	1791	80973	1791	69042236
743	291	4003	-315	-978	-9098	12	54	82	1792	81000	1792	69042237
742	300	3967	-310	-976	-9072	12	54	82	1793	81029	1793	69042237
735	297	3979	-311	-975	-9083	11	57	81	1794	81123	1794	69042245
737	289	3985	-310	-976	-9099	11	57	81	1795	81150	1795	69042245
745	304	3986	-313	-976	-9095	11	57	81	1796	81179	1796	69042251
732	306	3993	-315	-976	-9124	18	54	84	1797	81273	1797	69042252
724	299	3998	-313	-976	-9085	18	54	84	1798	81300	1798	69042252
726	282	3986	-312	-981	-9055	18	54	84	1799	81329	1799	69042257
730	291	3974	-310	-984	-9064	7	49	81	1800	81423	1800	69042257
731	294	3979	-314	-982	-9046	7	49	81	1801	81450	1801	69042263
738	277	3999	-315	-979	-9095	7	49	81	1802	81479	1802	69042264
719	289	4000	-314	-979	-9106	6	50	80	1803	81573	1803	69042269
711	290	4021	-312	-971	-9100	6	50	80	1804	81600	1804	69042270
712	301	4000	-312	-977	-9065	6	50	80	1805	81629	1805	69042270
735	297	4002	-312	-978	-9075	8	52	80	1806	81723	1806	69042302
757	298	3994	-310	-976	-9082	8	52	80	1807	81750	1807	69042302
724	283	3991	-309	-980	-9077	8	52	80	1808	81779	1808	69042302
731	286	3997	-309	-976	-9086	-1	59	77	1809	81873	1809	69042303
726	299	3986	-310	-973	-9071	-1	59	77	1810	81900	1810	69042303
741	297	4003	-316	-982	-9060	-1	59	77	1811	81929	1811	69042305
736	294	3996	-313	-978	-9087	-2	62	70	1812	82023	1812	69042305
724	298	3983	-309	-982	-9069	-2	62	70	1813	82050	1813	69042307
735	290	3999	-313	-980	-9072	-2	62	70	1814	82079	1814	69042307
726	301	3989	-313	-974	-9094	-2	54	72	1815	82173	1815	69042307
725	295	3989	-315	-982	-9114	-2	54	72	1816	82200	1816	69042309
706	282	3941	-310	-971	-9098	-2	54	72	1817	82229	1817	69042310
700	295	3980	-307	-975	-9072	-5	59	79	1818	82323	1818	69042312
701	309	3992	-309	-978	-9065	-5	59	79	1819	82350	1819	69042312
706	293	3992	-311	-977	-9099	-5	59	79	1820	82379	1820	69042312
720	291	4006	-313	-980	-9080	-5	55	75	1821	82473	1821	69042315
726	298	3999	-313	-977	-9070	-5	55	75	1822	82500	1822	69042315
725	303	3985	-312	-969	-9130	-5	55	75	1823	82529	1823	69042322
711	301	3967	-310	-978	-9088	-6	58	78	1824	82623	1824	69042323
716	296	3990	-312	-978	-9065	-6	58	78	1825	82650	1825	69042323
731	285	3981	-313	-980	-9096	-6	58	78	1826	82679	1826	69042329
722	292	3976	-311	-978	-9099	-8	56	76	1827	82773	1827	69042329
733	308	3962	-308	-977	-9083	-8	56	76	1828	82800	1828	69042336
728	289	4006	-310	-984	-9102	-8	56	76	1829	82829	1829	69042337
749	291	4014	-317	-981	-9076	-6	54	80	1830	82923	1830	69042337
747	297	4010	-317	-981	-9091	-6	54	80	1831	82950	1831	69042342
736	295	3991	-314	-980	-9071	-6	54	80	1832	82979	1832	69042343
734	299	3998	-313	-976	-9072	-15	59	75	1833	83073	1833	69042348
718	306	3988	-313	-973	-9078	-15	59	75	1834	83100	1834	69042348
705	294	4020	-315	-984	-9094	-15	59	75	1835	83123	1835	69042355
707	283	4022	-314	-973	-9084	-13	55	75	1836	83217	1836	69042358
712	297	3979	-311	-984	-9059	-13	55	75	1837	83249	1837	69042358
739	304	3988	-309	-972	-9067	-13	55	75	1838	83278	1838	69042362
742	297	3991	-310	-973	-9073	-14	60	78	1839	83372	1839	69042363
719	297	3998	-314	-982	-9101	-14	60	78	1840	83399	1840	69042368
717	284	4003	-313	-980	-9088	-14	60	78	1841	83428	1841	69042368
720	281	4020	-311	-978	-9090	-19	63	71	1842	83522	1842	69042369
720	287	4013	-308	-981	-9122	-19	63	71	1843	83549	1843	69042373
721	285	3993	-316	-981	-9087	-19	63	71	1844	83578	1844	69042374
715	280	3986	-318	-984	-9102	-22	62	74	1845	83672	1845	69042379
730	286	3984	-312	-985	-9123	-22	62	74	1846	83699	1846	69042380
713	283	3991	-314	-978	-9120	-22	62	74	1847	83728	1847	69042380
710	294	4026	-313	-983	-9098	-22	64	74	1848	83822	1848	69042388
714	293	4011	-305	-981	-9113	-22	64	74	1849	83849	1849	69042388
722	296	3975	-312	-985	-9082	-22	64	74	1850	83878	1850	69042394
719	297	3982	-316	-986	-9056	-26	70	72	1851	83972	1851	69042395
723	304	3987	-314	-977	-9085	-26	70	72	1852	83999	1852	69042395
717	293	3970	-308	-971	-9093	-26	70	72	1853	84028	1853	69042400
716	324	3954	-305	-975	-9108	-26	64	76	1854	84122	1854	69042401
710	306	3965	-306	-975	-9090	-26	64	76	1855	84149	1855	69042407
706	299	3970	-311	-986	-9093	-26	64	76	1856	84178	1856	69042409
717	301	3966	-308	-978	-9105	-35	69	75	1857	84272	1857	69042409
726	292	3978	-308	-979	-9086	-35	69	75	1858	84299	1858	69042412
726	293	3971	-315	-976	-9097	-35	69	75	1859	84328	1859	69042413
710	289	3990	-316	-978	-9119	-36	64	74	1860	84422	1860	69042419
713	284	3996	-317	-980	-9083	-36	64	74	1861	84449	1861	69042420
714	296	4015	-314	-974	-9059	-36	64	74	1862	84478	1862	69042423
713	291	3981	-310	-976	-9062	-35	71	75	1863	84572	1863	69042426
707	297	3978	-313	-984	-9062	-35	71	75	1864	84599	1864	69042426
724	287	3997	-315	-977	-9067	-35	71	75	1865	84628	1865	69042432
722	272	3998	-312	-979	-9084	-39	67	77	1866	84722	1866	69042432
726	277	3995	-313	-973	-9100	-39	67	77	1867	84749	1867	69042438
722	302	3978	-310	-977	-9090	-39	67	77	1868	84778	1868	69042439
699	298	3976	-313	-982	-9086	-39	73	77	1869	84872	1869	69042439
704	298	3977	-311	-981	-9042	-39	73	77	1870	84899	1870	69042445
712	292	3987	-307	-980	-9102	-39	73	77	1871	84928	1871	69042445
720	317	4000	-309	-985	-9113	-42	72	76	1872	85022	1872	69042451
722	307	3997	-312	-978	-9082	-42	72	76	1873	85049	1873	69042451
710	279	3979	-318	-982	-9092	-42	72	76	1874	85078	1874	69042451
709	278	3982	-313	-983	-9104	-43	75	75	1875	85172	1875	69042457
712	298	3988	-307	-981	-9074	-43	75	75	1876	85199	1876	69042457
715	302	3981	-308	-983	-9071	-43	75	75	1877	85228	1877	69042465
697	290	3992	-310	-979	-9077	-45	83	77	1878	85322	1878	69042465
702	278	4005	-314	-976	-9065	-45	83	77	1879	85349	1879	69042465
706	276	4004	-313	-980	-9058	-45	83	77	1880	85378	1880	69042472
700	284	3976	-311	-975	-9076	-53	77	73	1881	85472	1881	69042472
704	296	3988	-310	-977	-9104	-53	77	73	1882	85499	1882	69042478
716	303	3991	-308	-977	-9066	-53	77	73	1883	85528	1883	69042479
715	297	3987	-313	-978	-9098	-55	83	71	1884	85622	1884	69042479
714	290	3994	-317	-984	-9101	-55	83	71	1885	85649	1885	69042482
725	280	4002	-315	-972	-9108	-55	83	71	1886	85678	1886	69042483
722	287	4002	-307	-975	-9094	-54	78	80	1887	85772	1887	69042490
713	305	3994	-308	-976	-9083	-54	78	80	1888	85799	1888	69042490
708	286	4006	-315	-978	-9090	-54	78	80	1889	85828	1889	69042490
689	286	4003	-316	-988	-9089	-56	88	74	1890	85922	1890	69042497
689	272	4012	-321	-983	-9096	-56	88	74	1891	85949	1891	69042498
719	263	4013	-314	-977	-9088	-56	88	74	1892	85973	1892	69042503
724	260	4004	-316	-982	-9074	-59	89	77	1893	86066	1893	69042504
716	271	3991	-313	-975	-9080	-59	89	77	1894	86099	1894	69042510
