Accl X	Accl Y	Accl Z	Gyro X	Gyro Y	Gyro Z	Mag X	Mag Y	Mag Z	RPkt#	Rtime	LPkt#	Ltime
719	271	3947	-309	-982	-9086	-29	69	73	0	0	0	69090191
704	276	3964	-313	-982	-9073	-29	69	73	1	29	1	69090197
715	280	3999	-310	-980	-9057	-37	69	77	2	123	2	69090197
715	280	3997	-311	-979	-9045	-37	69	77	3	150	3	69090199
719	267	4059	-316	-974	-9092	-37	69	77	4	179	4	69090203
706	264	4086	-317	-979	-9110	-32	72	74	5	273	5	69090204
696	262	4054	-315	-980	-9060	-32	72	74	6	300	6	69090211
712	278	4001	-308	-982	-9086	-32	72	74	7	329	7	69090211
709	297	3971	-307	-983	-9078	-37	69	77	8	423	8	69090211
705	300	3952	-312	-980	-9084	-37	69	77	9	450	9	69090215
721	280	3924	-322	-982	-9087	-37	69	77	10	479	10	69090215
696	268	3947	-322	-981	-9109	-42	70	78	11	573	11	69090224
715	268	3998	-319	-973	-9094	-42	70	78	12	600	12	69090224
703	291	4051	-307	-977	-9093	-42	70	78	13	629	13	69090224
699	288	4037	-308	-975	-9087	-43	75	73	14	723	14	69090231
704	283	4061	-311	-975	-9072	-43	75	73	15	750	15	69090233
703	291	4017	-314	-983	-9074	-43	75	73	16	778	16	69090260
721	291	4007	-306	-982	-9064	-45	75	71	17	872	17	69090260
713	297	3969	-306	-980	-9080	-45	75	71	18	899	18	69090260
718	301	3953	-308	-983	-9115	-45	75	71	19	928	19	69090262
702	289	3933	-305	-982	-9110	-46	78	76	20	1016	20	69090263
700	290	3935	-301	-982	-9088	-46	78	76	21	1049	21	69090265
705	289	4005	-309	-972	-9065	-46	78	76	22	1078	22	69090265
705	290	4005	-310	-972	-9104	-50	76	72	23	1172	23	69090267
711	312	4036	-310	-975	-9094	-50	76	72	24	1199	24	69090267
710	293	4045	-310	-975	-9113	-50	76	72	25	1228	25	69090268
720	300	4039	-313	-982	-9104	-49	81	67	26	1322	26	69090270
718	300	4007	-312	-986	-9087	-49	81	67	27	1349	27	69090270
712	298	3947	-315	-984	-9084	-49	81	67	28	1378	28	69090272
718	304	3941	-316	-989	-9069	-54	82	72	29	1472	29	69090273
731	277	3937	-316	-988	-9091	-54	82	72	30	1499	30	69090273
718	288	3946	-318	-980	-9093	-54	82	72	31	1528	31	69090275
715	288	3962	-318	-978	-9097	-54	88	76	32	1622	32	69090275
694	283	3993	-320	-973	-9101	-54	88	76	33	1649	33	69090283
712	257	4035	-316	-981	-9075	-54	88	76	34	1677	34	69090283
700	262	4038	-312	-983	-9067	-53	85	79	35	1771	35	69090284
712	263	4015	-308	-978	-9089	-53	85	79	36	1798	36	69090286
714	288	3985	-306	-976	-9088	-53	85	79	37	1827	37	69090286
705	283	3960	-308	-977	-9078	-60	92	78	38	1921	38	69090295
702	285	3966	-308	-975	-9083	-60	92	78	39	1948	39	69090295
716	282	3958	-308	-988	-9113	-60	92	78	40	1977	40	69090296
706	279	3969	-308	-979	-9091	-61	95	77	41	2071	41	69090302
693	287	3975	-307	-976	-9084	-61	95	77	42	2098	42	69090303
710	287	4011	-308	-977	-9079	-61	95	77	43	2127	43	69090307
715	274	4025	-311	-976	-9084	-62	100	74	44	2221	44	69090308
708	272	4018	-312	-983	-9083	-62	100	74	45	2248	45	69090309
702	284	4018	-309	-982	-9092	-62	100	74	46	2271	46	69090315
708	290	4001	-307	-980	-9086	-60	96	74	47	2365	47	69090316
713	308	3975	-315	-980	-9080	-60	96	74	48	2397	48	69090319
705	292	3992	-312	-982	-9099	-60	96	74	49	2426	49	69090319
688	284	3993	-309	-982	-9097	-71	99	77	50	2520	50	69090322
706	287	4000	-312	-980	-9111	-71	99	77	51	2547	51	69090326
722	280	3985	-322	-977	-9063	-71	99	77	52	2576	52	69090327
715	275	4008	-323	-980	-9049	-68	102	82	53	2670	53	69090334
706	273	4011	-321	-979	-9069	-68	102	82	54	2697	54	69090334
715	271	4019	-315	-980	-9083	-68	102	82	55	2726	55	69090340
700	274	4005	-314	-981	-9091	-69	113	79	56	2820	56	69090340
702	289	3984	-318	-975	-9100	-69	113	79	57	2847	57	69090340
703	253	3990	-312	-982	-9085	-69	113	79	58	2876	58	69090346
709	263	3972	-314	-982	-9087	-67	115	73	59	2970	59	69090346
711	269	3986	-315	-979	-9087	-67	115	73	60	2997	60	69090353
707	262	4009	-307	-977	-9093	-67	115	73	61	3026	61	69090354
699	263	4002	-307	-967	-9108	-76	116	78	62	3120	62	69090354
701	287	4002	-311	-973	-9080	-76	116	78	63	3147	63	69090357
702	265	3991	-308	-981	-9070	-76	116	78	64	3176	64	69090358
687	275	3997	-310	-979	-9077	-76	118	80	65	3270	65	69090365
700	267	4020	-306	-980	-9073	-76	118	80	66	3297	66	69090366
703	262	3989	-306	-978	-9043	-76	118	80	67	3326	67	69090366
716	267	3987	-305	-981	-9078	-76	122	76	68	3420	68	69090372
711	282	3987	-306	-983	-9071	-76	122	76	69	3447	69	69090373
694	290	3997	-311	-977	-9072	-76	122	76	70	3476	70	69090379
695	293	3991	-311	-981	-9091	-68	126	80	71	3570	71	69090379
688	283	4011	-314	-986	-9053	-68	126	80	72	3597	72	69090380
714	268	4033	-318	-985	-9087	-68	126	80	73	3626	73	69090386
711	245	4021	-317	-985	-9099	-72	122	78	74	3720	74	69090387
708	248	4029	-311	-977	-9082	-72	122	78	75	3747	75	69090392
680	273	4009	-315	-976	-9068	-72	122	78	76	3776	76	69090393
676	267	4001	-317	-980	-9078	-73	129	81	77	3870	77	69090393
688	268	3975	-320	-979	-9071	-73	129	81	78	3897	78	69090396
700	257	3977	-320	-983	-9052	-73	129	81	79	3926	79	69090396
707	272	3993	-312	-978	-9088	-80	134	78	80	4020	80	69090405
715	265	3976	-311	-974	-9089	-80	134	78	81	4047	81	69090405
703	279	4014	-313	-982	-9088	-80	134	78	82	4076	82	69090411
692	279	4020	-312	-978	-9111	-75	145	81	83	4170	83	69090411
693	264	4018	-316	-977	-9097	-75	145	81	84	4197	84	69090412
707	272	3995	-306	-982	-9100	-75	145	81	85	4226	85	69090417
697	281	3973	-305	-975	-9063	-67	145	89	86	4314	86	69090418
693	273	3965	-303	-982	-9083	-67	145	89	87	4347	87	69090425
693	275	3983	-309	-981	-9117	-67	145	89	88	4376	88	69090426
705	276	3984	-313	-979	-9096	-69	147	85	89	4470	89	69090427
698	270	3982	-312	-980	-9090	-69	147	85	90	4497	90	69090429
706	270	4001	-312	-978	-9120	-69	147	85	91	4525	91	69090430
723	269	4004	-315	-981	-9105	-67	151	85	92	4619	92	69090437
701	270	4020	-310	-986	-9091	-67	151	85	93	4646	93	69090438
704	263	4027	-308	-986	-9090	-67	151	85	94	4675	94	69090439
713	282	3999	-309	-987	-9070	-72	156	84	95	4769	95	69090444
720	275	3994	-311	-982	-9120	-72	156	84	96	4796	96	69090445
715	267	3972	-315	-975	-9088	-72	156	84	97	4825	97	69090453
701	252	3958	-320	-985	-9079	-66	156	86	98	4919	98	69090454
706	254	3965	-321	-984	-9114	-66	156	86	99	4946	99	69090454
712	257	3977	-314	-981	-9089	-66	156	86	100	4975	100	69090457
696	270	3990	-316	-981	-9067	-67	165	83	101	5069	101	69090458
701	267	3998	-316	-978	-9088	-67	165	83	102	5096	102	69090464
722	259	4015	-316	-982	-9059	-67	165	83	103	5125	103	69090464
719	261	4035	-313	-984	-9065	-64	166	94	104	5219	104	69090464
715	247	4042	-310	-981	-9071	-64	166	94	105	5246	105	69090467
700	257	3991	-312	-984	-9126	-64	166	94	106	5275	106	69090468
701	270	3998	-308	-977	-9097	-63	173	91	107	5369	107	69090476
701	260	4003	-306	-981	-9125	-63	173	91	108	5396	108	69090476
708	258	3995	-305	-982	-9091	-63	173	91	109	5425	109	69090477
722	276	3999	-305	-975	-9086	-61	175	87	110	5519	110	69090482
718	276	4020	-311	-980	-9099	-61	175	87	111	5546	111	69090483
723	282	3999	-310	-972	-9128	-61	175	87	112	5575	112	69090489
697	278	4029	-312	-975	-9108	-64	182	90	113	5669	113	69090489
689	271	4025	-309	-979	-9088	-64	182	90	114	5696	114	69090496
702	276	4032	-308	-973	-9072	-64	182	90	115	5725	115	69090496
698	267	4041	-309	-976	-9061	-64	184	88	116	5819	116	69090497
708	252	4015	-312	-982	-9052	-64	184	88	117	5846	117	69090500
711	250	3994	-315	-979	-9092	-64	184	88	118	5875	118	69090501
699	260	3987	-314	-982	-9104	-59	185	95	119	5969	119	69090508
699	261	3995	-312	-977	-9081	-59	185	95	120	5996	120	69090508
715	262	4015	-314	-981	-9091	-59	185	95	121	6025	121	69090508
708	260	4008	-315	-984	-9091	-59	191	89	122	6119	122	69090515
699	261	4024	-320	-978	-9078	-59	191	89	123	6146	123	69090515
711	265	3999	-317	-981	-9087	-59	191	89	124	6175	124	69090521
721	258	4005	-311	-980	-9090	-50	188	84	125	6269	125	69090522
710	260	3997	-309	-978	-9084	-50	188	84	126	6296	126	69090522
704	262	4001	-310	-982	-9060	-50	188	84	127	6325	127	69090527
700	256	3999	-307	-982	-9065	-48	194	88	128	6419	128	69090528
716	283	3988	-306	-979	-9070	-48	194	88	129	6446	129	69090535
697	274	3975	-310	-977	-9047	-48	194	88	130	6475	130	69090535
693	265	4002	-312	-973	-9099	-52	194	92	131	6569	131	69090535
695	254	4017	-308	-972	-9108	-52	194	92	132	6596	132	69090538
698	256	3999	-311	-979	-9096	-52	194	92	133	6625	133	69090539
683	261	4000	-309	-979	-9091	-46	202	88	134	6719	134	69090547
699	267	4004	-308	-985	-9064	-46	202	88	135	6746	135	69090548
706	244	3976	-312	-975	-9062	-46	202	88	136	6775	136	69090548
711	254	3986	-313	-978	-9083	-46	202	92	137	6869	137	69090554
713	258	4000	-310	-974	-9108	-46	202	92	138	6896	138	69090555
703	256	4016	-309	-970	-9090	-46	202	92	139	6925	139	69090561
694	274	4004	-312	-975	-9069	-43	211	93	140	7019	140	69090562
699	282	4007	-314	-980	-9106	-43	211	93	141	7046	141	69090563
717	256	3969	-317	-989	-9078	-43	211	93	142	7075	142	69090568
718	269	3969	-315	-983	-9082	-39	209	95	143	7169	143	69090568
720	259	3980	-311	-972	-9075	-39	209	95	144	7196	144	69090573
687	256	3986	-311	-971	-9109	-39	209	95	145	7225	145	69090574
689	254	3985	-314	-972	-9100	-37	217	95	146	7319	146	69090579
687	239	3983	-313	-975	-9113	-37	217	95	147	7346	147	69090579
705	254	3992	-312	-982	-9061	-37	217	95	148	7375	148	69090584
733	251	3992	-312	-981	-9065	-37	217	93	149	7469	149	69090586
727	245	3981	-311	-979	-9081	-37	217	93	150	7496	150	69090587
714	260	4013	-309	-979	-9080	-37	217	93	151	7525	151	69090592
709	242	4018	-309	-972	-9082	-29	219	91	152	7619	152	69090593
709	247	4016	-309	-978	-9120	-29	219	91	153	7646	153	69090593
713	280	3987	-311	-981	-9114	-29	219	91	154	7675	154	69090601
708	273	4000	-311	-976	-9088	-26	220	92	155	7769	155	69090602
721	274	3999	-310	-980	-9100	-26	220	92	156	7796	156	69090606
724	257	3991	-312	-976	-9098	-26	220	92	157	7825	157	69090606
717	260	3998	-311	-974	-9087	-18	222	102	158	7919	158	69090607
716	251	4017	-311	-981	-9090	-18	222	102	159	7946	159	69090610
694	263	3989	-312	-978	-9076	-18	222	102	160	7975	160	69090610
711	255	4017	-317	-985	-9067	-22	224	102	161	8069	161	69090618
714	243	4000	-319	-990	-9111	-22	224	102	162	8096	162	69090619
710	251	4007	-314	-979	-9097	-22	224	102	163	8125	163	69090619
706	260	4026	-309	-982	-9107	-18	226	96	164	8219	164	69090625
708	259	3999	-309	-980	-9093	-18	226	96	165	8246	165	69090625
708	263	3995	-315	-991	-9083	-18	226	96	166	8275	166	69090633
709	260	3989	-313	-993	-9055	-14	226	98	167	8369	167	69090634
730	260	4008	-310	-984	-9092	-14	226	98	168	8396	168	69090634
729	253	4016	-309	-983	-9112	-14	226	98	169	8425	169	69090639
717	258	3990	-310	-983	-9108	-7	229	95	170	8519	170	69090639
715	257	4004	-312	-979	-9101	-7	229	95	171	8546	171	69090643
740	232	3976	-311	-983	-9098	-7	229	95	172	8575	172	69090643
730	244	3994	-309	-978	-9084	-4	228	102	173	8669	173	69090644
723	252	4000	-313	-977	-9100	-4	228	102	174	8696	174	69090650
719	243	3977	-314	-972	-9123	-4	228	102	175	8725	175	69090651
714	241	3978	-314	-971	-9125	-10	234	104	176	8819	176	69090684
705	233	3964	-315	-979	-9103	-10	234	104	177	8846	177	69090684
711	241	3963	-306	-976	-9084	-10	234	104	178	8875	178	69090686
723	245	3966	-306	-976	-9079	4	230	106	179	8969	179	69090687
732	248	3987	-309	-979	-9072	4	230	106	180	8996	180	69090687
717	254	3999	-314	-980	-9074	4	230	106	181	9025	181	69090689
725	248	4010	-307	-980	-9081	4	234	98	182	9119	182	69090690
729	259	4004	-304	-981	-9089	4	234	98	183	9146	183	69090691
701	250	4007	-309	-979	-9078	4	234	98	184	9175	184	69090693
717	244	3986	-311	-983	-9085	6	240	100	185	9269	185	69090693
727	255	3986	-316	-982	-9076	6	240	100	186	9296	186	69090694
724	252	3977	-314	-976	-9079	6	240	100	187	9325	187	69090694
722	243	3976	-309	-980	-9101	9	237	95	188	9419	188	69090696
709	247	3995	-309	-973	-9110	9	237	95	189	9446	189	69090697
731	232	3998	-313	-980	-9082	9	237	95	190	9475	190	69090697
739	240	4006	-312	-988	-9099	18	230	100	191	9569	191	69090703
724	246	3998	-309	-983	-9057	18	230	100	192	9596	192	69090704
731	248	3986	-313	-981	-9065	18	230	100	193	9625	193	69090704
727	262	4000	-313	-976	-9107	18	234	106	194	9719	194	69090705
726	257	3993	-310	-972	-9078	18	234	106	195	9746	195	69090706
711	266	4025	-312	-981	-9096	18	234	106	196	9775	196	69090712
725	258	3992	-312	-976	-9086	27	237	99	197	9869	197	69090712
724	257	4008	-311	-975	-9056	27	237	99	198	9896	198	69090716
755	265	3996	-312	-984	-9066	27	237	99	199	9924	199	69090722
746	245	3993	-313	-980	-9096	28	236	108	200	10018	200	69090722
726	236	3987	-316	-981	-9094	28	236	108	201	10045	201	69090722
729	249	4014	-315	-973	-9084	28	236	108	202	10074	202	69090722
731	243	4019	-315	-975	-9085	36	240	106	203	10168	203	69090729
709	257	4000	-309	-984	-9078	36	240	106	204	10195	204	69090729
728	250	3986	-314	-984	-9059	36	240	106	205	10223	205	69090729
720	245	3966	-315	-986	-9070	35	229	105	206	10317	206	69090735
736	238	3982	-313	-978	-9070	35	229	105	207	10344	207	69090735
722	246	3981	-309	-975	-9094	35	229	105	208	10373	208	69090742
731	245	4008	-310	-979	-9075	46	238	104	209	10467	209	69090743
734	232	4010	-311	-978	-9099	46	238	104	210	10494	210	69090749
732	237	4000	-311	-982	-9105	46	238	104	211	10523	211	69090749
720	249	3994	-310	-984	-9099	43	227	101	212	10617	212	69090749
722	253	3972	-311	-980	-9061	43	227	101	213	10644	213	69090752
743	263	3995	-313	-980	-9100	43	227	101	214	10673	214	69090753
712	258	3987	-316	-984	-9121	53	233	105	215	10767	215	69090762
698	257	3984	-313	-979	-9126	53	233	105	216	10794	216	69090762
737	255	4029	-310	-979	-9080	53	233	105	217	10823	217	69090763
733	254	4011	-312	-972	-9077	50	232	106	218	10917	218	69090767
737	245	4005	-314	-973	-9093	50	232	106	219	10944	219	69090768
726	260	3981	-314	-981	-9117	50	232	106	220	10973	220	69090774
726	247	3976	-315	-979	-9093	57	231	109	221	11067	221	69090774
735	237	3984	-316	-980	-9086	57	231	109	222	11094	222	69090774
719	260	3997	-316	-978	-9094	57	231	109	223	11123	223	69090782
722	244	3977	-316	-978	-9078	60	228	106	224	11217	224	69090782
734	248	3985	-315	-982	-9105	60	228	106	225	11244	225	69090787
735	246	3990	-314	-979	-9114	60	228	106	226	11273	226	69090788
738	247	3998	-312	-975	-9087	60	228	102	227	11367	227	69090788
738	239	3980	-315	-983	-9116	60	228	102	228	11394	228	69090794
737	241	4002	-315	-971	-9123	60	228	102	229	11423	229	69090794
737	241	4005	-313	-982	-9076	67	223	109	230	11517	230	69090800
735	250	4006	-314	-982	-9091	67	223	109	231	11544	231	69090800
732	241	4000	-309	-980	-9112	67	223	109	232	11573	232	69090801
730	248	3994	-313	-984	-9127	71	223	105	233	11667	233	69090806
730	243	3998	-314	-983	-9123	71	223	105	234	11694	234	69090807
726	239	3983	-312	-980	-9093	71	223	105	235	11723	235	69090814
734	228	3994	-311	-977	-9075	80	226	110	236	11817	236	69090814
735	241	3992	-309	-975	-9092	80	226	110	237	11844	237	69090815
718	242	3998	-307	-978	-9106	80	226	110	238	11873	238	69090820
733	244	4002	-309	-976	-9100	76	218	108	239	11967	239	69090821
744	233	3995	-312	-982	-9119	76	218	108	240	11994	240	69090823
734	242	4009	-312	-979	-9071	76	218	108	241	12023	241	69090824
723	260	3985	-309	-974	-9066	88	222	110	242	12117	242	69090832
725	267	3976	-310	-978	-9086	88	222	110	243	12144	243	69090833
751	255	3986	-316	-982	-9090	88	222	110	244	12173	244	69090834
744	248	3986	-317	-980	-9096	90	214	114	245	12267	245	69090839
742	240	3984	-316	-981	-9102	90	214	114	246	12294	246	69090840
732	262	3988	-312	-972	-9096	90	214	114	247	12323	247	69090845
739	253	3977	-312	-974	-9090	90	212	112	248	12417	248	69090846
724	257	4021	-313	-983	-9085	90	212	112	249	12444	249	69090847
724	234	4011	-309	-978	-9068	90	212	112	250	12473	250	69090855
743	240	4014	-309	-978	-9090	96	214	114	251	12567	251	69090856
745	244	4015	-306	-980	-9097	96	214	114	252	12594	252	69090859
736	240	3999	-311	-976	-9098	96	214	114	253	12623	253	69090860
744	242	3981	-312	-979	-9106	105	207	115	254	12717	254	69090863
747	249	3971	-308	-981	-9060	105	207	115	255	12744	255	69090863
728	264	3981	-307	-974	-9096	105	207	115	256	12773	256	69090864
741	276	3985	-305	-979	-9109	101	203	123	257	12867	257	69090873
746	262	4005	-309	-976	-9075	101	203	123	258	12894	258	69090874
726	255	3973	-316	-982	-9098	101	203	123	259	12923	259	69090874
729	266	3976	-319	-978	-9114	110	204	120	260	13017	260	69090903
736	249	3983	-316	-976	-9121	110	204	120	261	13044	261	69090903
744	265	3985	-307	-979	-9107	110	204	120	262	13073	262	69090905
751	267	3981	-311	-972	-9120	112	202	122	263	13167	263	69090906
740	271	3978	-312	-975	-9085	112	202	122	264	13194	264	69090908
730	247	3986	-317	-979	-9095	112	202	122	265	13223	265	69090908
748	247	3987	-313	-974	-9093	118	198	118	266	13317	266	69090909
754	246	3969	-313	-979	-9102	118	198	118	267	13344	267	69090910
738	244	3995	-315	-985	-9070	118	198	118	268	13373	268	69090913
727	265	3996	-315	-982	-9075	110	190	116	269	13467	269	69090913
739	264	4018	-315	-983	-9084	110	190	116	270	13494	270	69090914
748	246	3997	-312	-978	-9088	110	190	116	271	13523	271	69090915
768	252	3998	-309	-979	-9084	123	191	121	272	13617	272	69090916
752	257	3980	-306	-983	-9078	123	191	121	273	13644	273	69090916
737	264	3988	-312	-971	-9059	123	191	121	274	13673	274	69090917
735	256	4000	-310	-978	-9044	122	182	124	275	13767	275	69090918
739	260	3993	-309	-979	-9091	122	182	124	276	13794	276	69090918
739	254	4001	-315	-974	-9099	122	182	124	277	13823	277	69090923
740	244	3981	-314	-984	-9110	130	186	134	278	13917	278	69090924
748	233	3976	-313	-985	-9099	130	186	134	279	13944	279	69090931
744	265	3982	-310	-981	-9046	130	186	134	280	13973	280	69090932
725	272	3979	-309	-974	-9045	125	171	127	281	14067	281	69090932
712	275	3967	-311	-979	-9068	125	171	127	282	14094	282	69090933
748	257	3992	-309	-987	-9067	125	171	127	283	14123	283	69090933
749	250	4013	-312	-981	-9073	131	171	133	284	14217	284	69090942
753	255	3994	-314	-977	-9080	131	171	133	285	14244	285	69090942
736	256	4004	-311	-980	-9089	131	171	133	286	14273	286	69090942
723	267	3978	-312	-977	-9076	133	165	131	287	14367	287	69090948
736	272	3981	-311	-973	-9086	133	165	131	288	14394	288	69090949
751	254	4008	-314	-981	-9084	133	165	131	289	14417	289	69090954
745	244	4010	-315	-977	-9086	132	164	138	290	14511	290	69090955
736	242	3997	-316	-983	-9082	132	164	138	291	14543	291	69090955
739	271	3992	-316	-972	-9080	132	164	138	292	14572	292	69090962
742	256	3988	-313	-970	-9069	134	150	134	293	14666	293	69090962
761	261	3980	-312	-977	-9093	134	150	134	294	14693	294	69090966
743	257	3975	-308	-974	-9089	134	150	134	295	14722	295	69090967
734	254	3974	-307	-981	-9084	130	150	146	296	14816	296	69090974
739	260	3972	-308	-982	-9075	130	150	146	297	14843	297	69090975
754	252	3992	-310	-973	-9096	130	150	146	298	14872	298	69090975
760	255	3989	-308	-976	-9076	133	145	139	299	14966	299	69090981
756	267	3966	-308	-977	-9085	133	145	139	300	14993	300	69090982
745	270	4005	-310	-978	-9078	133	145	139	301	15022	301	69090987
763	268	3998	-308	-983	-9100	127	147	155	302	15116	302	69090987
762	272	3998	-310	-978	-9111	127	147	155	303	15143	303	69090988
743	258	3993	-313	-986	-9106	127	147	155	304	15166	304	69090995
760	251	3999	-305	-982	-9102	132	132	136	305	15260	305	69090995
776	271	4000	-311	-974	-9075	132	132	136	306	15292	306	69091001
753	271	3981	-312	-980	-9084	132	132	136	307	15321	307	69091001
755	254	3981	-313	-976	-9071	121	137	159	308	15415	308	69091001
757	256	4012	-318	-978	-9083	121	137	159	309	15442	309	69091005
768	263	3990	-313	-980	-9057	121	137	159	310	15471	310	69091005
754	255	3983	-311	-972	-9085	127	125	147	311	15565	311	69091013
748	251	3994	-311	-975	-9083	127	125	147	312	15592	312	69091013
742	266	3983	-312	-978	-9070	127	125	147	313	15620	313	69091014
735	266	3980	-314	-982	-9095	120	126	154	314	15714	314	69091020
737	266	3999	-310	-980	-9084	120	126	154	315	15741	315	69091020
726	278	3963	-309	-977	-9085	120	126	154	316	15770	316	69091026
741	279	3982	-313	-977	-9107	121	115	149	317	15864	317	69091027
748	274	3999	-315	-981	-9048	121	115	149	318	15891	318	69091027
759	255	4003	-311	-973	-9069	121	115	149	319	15920	319	69091034
750	258	3985	-309	-975	-9093	112	120	154	320	16013	320	69091058
746	239	3990	-309	-979	-9090	112	120	154	321	16040	321	69091059
737	277	3996	-311	-979	-9079	112	120	154	322	16069	322	69091059
731	260	4005	-317	-981	-9070	111	107	157	323	16163	323	69091060
744	258	4020	-315	-977	-9064	111	107	157	324	16190	324	69091060
742	258	4004	-308	-980	-9054	111	107	157	325	16219	325	69091061
750	270	3991	-307	-976	-9067	101	107	155	326	16313	326	69091062
757	300	4006	-305	-972	-9074	101	107	155	327	16340	327	69091062
756	294	3990	-311	-980	-9081	101	107	155	328	16369	328	69091062
759	295	4001	-312	-980	-9070	96	100	152	329	16463	329	69091062
746	294	3984	-312	-979	-9041	96	100	152	330	16490	330	69091063
760	281	3977	-311	-983	-9091	96	100	152	331	16519	331	69091066
755	282	4011	-314	-974	-9070	93	101	145	332	16613	332	69091066
739	276	4021	-315	-977	-9086	93	101	145	333	16640	333	69091072
745	270	4010	-317	-981	-9083	93	101	145	334	16669	334	69091073
741	268	4011	-316	-976	-9096	93	93	151	335	16763	335	69091073
752	287	4008	-313	-982	-9107	93	93	151	336	16790	336	69091076
752	280	3998	-313	-981	-9092	93	93	151	337	16819	337	69091076
743	273	3967	-314	-982	-9057	84	96	142	338	16913	338	69091085
758	267	3998	-310	-981	-9078	84	96	142	339	16940	339	69091085
750	262	4002	-306	-974	-9069	84	96	142	340	16969	340	69091086
747	277	3990	-302	-977	-9077	83	97	145	341	17063	341	69091091
744	284	3996	-305	-976	-9081	83	97	145	342	17090	342	69091092
739	285	3964	-312	-976	-9066	83	97	145	343	17119	343	69091098
760	297	3979	-311	-979	-9065	76	86	132	344	17213	344	69091098
755	286	3981	-311	-971	-9067	76	86	132	345	17240	345	69091099
735	298	4008	-310	-977	-9099	76	86	132	346	17269	346	69091105
740	280	4000	-312	-982	-9094	80	86	150	347	17363	347	69091106
750	274	3990	-312	-981	-9110	80	86	150	348	17390	348	69091112
751	276	3977	-312	-986	-9091	80	86	150	349	17419	349	69091113
756	289	3999	-311	-980	-9057	75	79	131	350	17513	350	69091113
735	285	3989	-311	-972	-9091	75	79	131	351	17540	351	69091118
744	271	4006	-315	-977	-9103	75	79	131	352	17569	352	69091118
754	270	3999	-317	-971	-9097	73	85	139	353	17663	353	69091124
756	269	4004	-320	-976	-9105	73	85	139	354	17690	354	69091124
744	275	4000	-315	-978	-9098	73	85	139	355	17719	355	69091124
748	276	3988	-312	-975	-9082	67	69	125	356	17813	356	69091130
740	274	3971	-311	-978	-9072	67	69	125	357	17840	357	69091130
729	274	3990	-312	-980	-9084	67	69	125	358	17869	358	69091137
735	275	3987	-314	-980	-9068	66	82	142	359	17963	359	69091137
747	275	3988	-313	-982	-9074	66	82	142	360	17990	360	69091143
770	287	3998	-313	-976	-9086	66	82	142	361	18019	361	69091144
734	264	4003	-313	-979	-9075	64	66	130	362	18113	362	69091144
742	275	3990	-309	-981	-9082	64	66	130	363	18140	363	69091147
763	273	3982	-310	-972	-9082	64	66	130	364	18169	364	69091148
748	279	3987	-313	-981	-9068	64	66	132	365	18263	365	69091156
748	281	4006	-311	-985	-9066	64	66	132	366	18290	366	69091157
776	267	3991	-314	-981	-9090	64	66	132	367	18319	367	69091157
773	271	3977	-314	-978	-9076	69	65	123	368	18413	368	69091162
747	261	3975	-311	-973	-9076	69	65	123	369	18440	369	69091163
712	279	4013	-310	-981	-9081	69	65	123	370	18469	370	69091170
738	277	4005	-314	-977	-9100	59	73	127	371	18563	371	69091170
749	280	3988	-313	-976	-9089	59	73	127	372	18590	372	69091171
742	300	4020	-309	-980	-9077	59	73	127	373	18619	373	69091176
749	296	3991	-309	-977	-9082	58	64	126	374	18713	374	69091177
738	298	4006	-312	-975	-9093	58	64	126	375	18740	375	69091183
735	297	3993	-312	-985	-9086	58	64	126	376	18769	376	69091184
731	289	3986	-315	-979	-9100	58	64	120	377	18863	377	69091185
737	275	4004	-316	-979	-9083	58	64	120	378	18890	378	69091189
742	294	3979	-314	-976	-9076	58	64	120	379	18919	379	69091189
749	275	3974	-310	-972	-9082	52	62	118	380	19013	380	69091195
746	279	3994	-310	-977	-9052	52	62	118	381	19040	381	69091195
736	274	3992	-316	-977	-9054	52	62	118	382	19069	382	69091196
719	271	3980	-314	-978	-9105	46	58	114	383	19163	383	69091201
742	277	3976	-310	-981	-9103	46	58	114	384	19190	384	69091201
731	272	3981	-309	-975	-9073	46	58	114	385	19219	385	69091208
710	276	3986	-311	-976	-9092	51	61	115	386	19307	386	69091209
728	296	3978	-311	-975	-9094	51	61	115	387	19340	387	69091215
770	298	3991	-311	-978	-9070	51	61	115	388	19369	388	69091215
756	298	3979	-309	-982	-9093	45	59	113	389	19463	389	69091215
757	286	3983	-309	-975	-9102	45	59	113	390	19490	390	69091219
753	288	3994	-311	-983	-9086	45	59	113	391	19519	391	69091219
741	281	3987	-312	-983	-9078	38	58	112	392	19613	392	69091227
744	276	3981	-312	-977	-9080	38	58	112	393	19640	393	69091228
751	280	3990	-309	-975	-9096	38	58	112	394	19669	394	69091228
754	298	3989	-312	-975	-9085	38	58	104	395	19763	395	69091234
749	305	3988	-314	-983	-9135	38	58	104	396	19790	396	69091234
755	277	3992	-315	-981	-9120	38	58	104	397	19819	397	69091241
744	291	4008	-315	-974	-9101	30	62	106	398	19913	398	69091242
741	300	3988	-309	-972	-9097	30	62	106	399	19940	399	69091242
748	284	4004	-306	-973	-9083	30	62	106	400	19969	400	69091248
726	298	4006	-309	-974	-9084	34	58	102	401	20063	401	69091248
736	291	3992	-313	-982	-9082	34	58	102	402	20090	402	69091254
746	287	3990	-312	-976	-9097	34	58	102	403	20119	403	69091254
735	307	3967	-310	-977	-9090	30	50	104	404	20213	404	69091254
745	296	3961	-311	-978	-9085	30	50	104	405	20240	405	69091261
739	296	3978	-313	-980	-9094	30	50	104	406	20269	406	69091261
738	303	3976	-315	-984	-9072	29	47	97	407	20363	407	69091266
728	290	3988	-318	-988	-9113	29	47	97	408	20390	408	69091266
755	293	4012	-314	-977	-9084	29	47	97	409	20419	409	69091267
757	290	4012	-313	-986	-9072	25	55	101	410	20513	410	69091272
746	297	4008	-312	-980	-9099	25	55	101	411	20540	411	69091273
740	281	4002	-317	-977	-9083	25	55	101	412	20569	412	69091280
734	295	3985	-312	-980	-9063	25	51	99	413	20663	413	69091280
756	295	3987	-306	-977	-9076	25	51	99	414	20690	414	69091281
730	305	3978	-310	-983	-9128	25	51	99	415	20719	415	69091286
728	283	3994	-312	-982	-9105	25	51	93	416	20813	416	69091286
733	296	4026	-314	-974	-9099	25	51	93	417	20840	417	69091290
763	303	3999	-308	-983	-9110	25	51	93	418	20869	418	69091290
742	293	3995	-310	-979	-9091	13	53	91	419	20963	419	69091298
745	280	4000	-311	-978	-9086	13	53	91	420	20990	420	69091299
737	295	3985	-316	-977	-9105	13	53	91	421	21019	421	69091299
727	299	4012	-313	-976	-9127	15	55	89	422	21113	422	69091307
724	296	3989	-313	-981	-9129	15	55	89	423	21140	423	69091309
751	288	4007	-311	-975	-9100	15	55	89	424	21169	424	69091312
752	292	4003	-314	-975	-9083	12	50	90	425	21263	425	69091312
748	286	4016	-315	-980	-9056	12	50	90	426	21290	426	69091312
731	287	3981	-314	-977	-9060	12	50	90	427	21319	427	69091319
727	299	4001	-310	-980	-9085	12	48	84	428	21413	428	69091319
747	306	3990	-309	-984	-9082	12	48	84	429	21440	429	69091325
750	301	3975	-316	-975	-9075	12	48	84	430	21469	430	69091325
749	288	3990	-315	-980	-9094	9	49	83	431	21563	431	69091325
747	300	4005	-311	-982	-9084	9	49	83	432	21590	432	69091331
737	302	3996	-311	-979	-9072	9	49	83	433	21619	433	69091332
745	307	4002	-313	-985	-9101	5	49	85	434	21713	434	69091337
731	305	4014	-315	-979	-9108	5	49	85	435	21740	435	69091338
738	280	3981	-314	-978	-9085	5	49	85	436	21769	436	69091338
744	272	3994	-314	-982	-9123	9	47	75	437	21863	437	69091343
735	279	4010	-307	-976	-9101	9	47	75	438	21890	438	69091344
724	295	3985	-308	-982	-9082	9	47	75	439	21918	439	69091351
736	291	3964	-314	-980	-9088	5	53	83	440	22012	440	69091351
737	286	3978	-317	-976	-9095	5	53	83	441	22039	441	69091351
747	282	3979	-312	-982	-9105	5	53	83	442	22068	442	69091357
716	285	3963	-308	-977	-9085	1	61	83	443	22162	443	69091358
714	285	3983	-308	-975	-9065	1	61	83	444	22189	444	69091361
720	296	4002	-315	-979	-9052	1	61	83	445	22218	445	69091362
731	300	3990	-314	-978	-9076	3	51	81	446	22312	446	69091372
720	295	3995	-311	-981	-9069	3	51	81	447	22339	447	69091374
717	306	3988	-310	-979	-9089	3	51	81	448	22368	448	69091374
726	293	3997	-312	-978	-9103	-1	57	71	449	22462	449	69091376
711	290	4005	-315	-984	-9088	-1	57	71	450	22489	450	69091377
734	292	3998	-315	-977	-9083	-1	57	71	451	22518	451	69091385
724	277	3994	-314	-979	-9097	1	55	71	452	22612	452	69091385
743	276	4001	-311	-982	-9075	1	55	71	453	22639	453	69091385
748	297	4001	-310	-980	-9105	1	55	71	454	22668	454	69091388
739	295	3999	-315	-980	-9066	-5	59	79	455	22762	455	69091389
732	295	3965	-317	-977	-9091	-5	59	79	456	22789	456	69091396
724	296	3973	-308	-978	-9098	-5	59	79	457	22818	457	69091397
726	288	3980	-308	-981	-9073	-2	58	70	458	22912	458	69091397
718	296	4018	-307	-973	-9086	-2	58	70	459	22939	459	69091402
717	285	3986	-314	-982	-9100	-2	58	70	460	22968	460	69091403
721	294	3990	-317	-979	-9106	-9	61	73	461	23062	461	69091408
716	300	3990	-312	-976	-9116	-9	61	73	462	23089	462	69091409
699	307	4014	-312	-981	-9089	-9	61	73	463	23118	463	69091409
707	304	4004	-311	-978	-9066	-12	54	80	464	23212	464	69091415
724	289	4009	-317	-976	-9071	-12	54	80	465	23239	465	69091415
712	285	4003	-313	-982	-9091	-12	54	80	466	23268	466	69091422
702	289	4008	-313	-977	-9096	-18	62	76	467	23362	467	69091423
712	283	4018	-313	-977	-9108	-18	62	76	468	23389	468	69091423
691	298	4021	-311	-980	-9107	-18	62	76	469	23418	469	69091429
707	280	4020	-311	-975	-9047	-13	61	73	470	23512	470	69091429
730	286	4001	-311	-983	-9045	-13	61	73	471	23539	471	69091435
725	289	3977	-311	-974	-9076	-13	61	73	472	23568	472	69091435
731	303	3986	-309	-979	-9079	-16	60	74	473	23662	473	69091436
723	313	3978	-312	-984	-9098	-16	60	74	474	23689	474	69091443
717	305	3974	-312	-979	-9096	-16	60	74	475	23718	475	69091443
715	301	3989	-310	-983	-9066	-18	60	76	476	23812	476	69091448
711	295	3996	-312	-982	-9068	-18	60	76	477	23839	477	69091448
719	295	3990	-311	-981	-9107	-18	60	76	478	23868	478	69091455
719	292	4000	-312	-981	-9070	-18	58	74	479	23962	479	69091455
723	286	3977	-314	-976	-9084	-18	58	74	480	23989	480	69091455
736	279	3971	-312	-981	-9102	-18	58	74	481	24018	481	69091462
731	278	3954	-313	-982	-9092	-20	60	76	482	24112	482	69091462
730	277	3983	-309	-974	-9087	-20	60	76	483	24139	483	69091467
728	286	4006	-310	-980	-9112	-20	60	76	484	24168	484	69091468
743	292	4002	-311	-976	-9097	-22	70	70	485	24262	485	69091468
715	296	3988	-315	-973	-9077	-22	70	70	486	24289	486	69091474
728	289	3996	-309	-973	-9080	-22	70	70	487	24318	487	69091474
723	298	3976	-308	-975	-9072	-24	70	78	488	24412	488	69091480
721	305	3976	-313	-974	-9072	-24	70	78	489	24439	489	69091480
695	290	3955	-311	-980	-9063	-24	70	78	490	24468	490	69091480
711	290	3974	-309	-980	-9074	-32	64	74	491	24562	491	69091486
723	288	3983	-310	-977	-9080	-32	64	74	492	24589	492	69091486
710	288	3983	-314	-969	-9100	-32	64	74	493	24618	493	69091493
722	282	3999	-317	-977	-9093	-32	72	74	494	24712	494	69091494
725	274	4010	-317	-982	-9083	-32	72	74	495	24739	495	69091494
704	288	4015	-313	-978	-9063	-32	72	74	496	24762	496	69091500
716	285	4023	-310	-978	-9055	-30	72	78	497	24856	497	69091500
716	294	3997	-313	-975	-9123	-30	72	78	498	24888	498	69091506
705	275	3980	-313	-978	-9069	-30	72	78	499	24917	499	69091506
724	281	3982	-312	-986	-9084	-39	73	81	500	25011	500	69091507
730	290	3992	-310	-986	-9079	-39	73	81	501	25038	501	69091513
719	304	4002	-311	-975	-9046	-39	73	81	502	25067	502	69091513
703	293	3983	-312	-978	-9097	-40	72	80	503	25161	503	69091542
703	286	4000	-313	-978	-9116	-40	72	80	504	25188	504	69091543
716	290	3999	-313	-982	-9090	-40	72	80	505	25217	505	69091543
709	284	4002	-314	-979	-9072	-44	76	70	506	25311	506	69091544
725	286	3981	-311	-969	-9052	-44	76	70	507	25338	507	69091544
714	280	3999	-318	-979	-9076	-44	76	70	508	25367	508	69091546
717	284	4004	-319	-975	-9077	-45	79	71	509	25461	509	69091546
723	288	4013	-317	-976	-9057	-45	79	71	510	25488	510	69091548
707	282	4012	-306	-976	-9063	-45	79	71	511	25517	511	69091549
704	290	3999	-307	-968	-9080	-46	80	74	512	25611	512	69091549
699	287	3988	-312	-970	-9103	-46	80	74	513	25638	513	69091551
706	279	4000	-312	-973	-9127	-46	80	74	514	25667	514	69091551
723	251	3998	-315	-975	-9108	-52	84	66	515	25761	515	69091553
712	252	4013	-314	-978	-9095	-52	84	66	516	25788	516	69091554
712	289	3993	-304	-975	-9099	-52	84	66	517	25817	517	69091554
693	303	3983	-311	-972	-9102	-57	81	73	518	25911	518	69091557
699	311	3983	-316	-977	-9110	-57	81	73	519	25938	519	69091558
712	299	3973	-316	-979	-9088	-57	81	73	520	25967	520	69091565
700	280	3990	-314	-984	-9077	-57	79	73	521	26061	521	69091565
710	274	3984	-311	-984	-9077	-57	79	73	522	26088	522	69091566
707	281	3976	-316	-980	-9107	-57	79	73	523	26117	523	69091571
732	280	3972	-312	-980	-9108	-53	87	79	524	26211	524	69091571
704	274	3973	-312	-979	-9095	-53	87	79	525	26238	525	69091578
722	281	4003	-311	-978	-9088	-53	87	79	526	26267	526	69091578
706	277	3996	-312	-980	-9091	-56	86	82	527	26361	527	69091579
703	274	3977	-315	-974	-9066	-56	86	82	528	26388	528	69091584
711	290	3999	-316	-982	-9102	-56	86	82	529	26417	529	69091585
690	268	3995	-315	-980	-9122	-60	94	74	530	26511	530	69091592
702	270	4011	-312	-976	-9113	-60	94	74	531	26538	531	69091592
710	283	3982	-309	-980	-9084	-60	94	74	532	26567	532	69091593
704	295	3975	-313	-979	-9054	-61	97	77	533	26661	533	69091596
724	294	3983	-316	-976	-9084	-61	97	77	534	26688	534	69091597
701	264	4002	-309	-979	-9064	-61	97	77	535	26717	535	69091604
694	272	4024	-307	-976	-9054	-60	100	74	536	26811	536	69091604
707	284	4007	-309	-982	-9088	-60	100	74	537	26838	537	69091610
699	271	4004	-309	-980	-9086	-60	100	74	538	26867	538	69091610
704	273	4005	-311	-980	-9061	-65	101	77	539	26961	539	69091610
716	274	3991	-312	-982	-9077	-65	101	77	540	26988	540	69091613
698	277	3991	-306	-977	-9104	-65	101	77	541	27017	541	69091614
697	293	3984	-306	-977	-9116	-65	105	79	542	27111	542	69091622
697	297	3998	-309	-979	-9089	-65	105	79	543	27138	543	69091622
700	269	4007	-314	-976	-9091	-65	105	79	544	27167	544	69091623
701	269	3995	-316	-984	-9060	-65	107	83	545	27261	545	69091628
707	268	3975	-316	-978	-9064	-65	107	83	546	27288	546	69091629
708	287	3972	-310	-979	-9098	-65	107	83	547	27317	547	69091636
703	301	3966	-310	-983	-9088	-65	109	75	548	27411	548	69091637
692	294	4003	-313	-978	-9089	-65	109	75	549	27438	549	69091638
714	286	3982	-313	-984	-9087	-65	109	75	550	27467	550	69091642
689	299	3992	-310	-981	-9073	-66	112	78	551	27561	551	69091643
688	295	3989	-313	-977	-9083	-66	112	78	552	27588	552	69091648
714	275	4013	-317	-983	-9060	-66	112	78	553	27617	553	69091649
712	273	3973	-311	-977	-9109	-69	119	79	554	27711	554	69091653
715	290	3974	-312	-974	-9092	-69	119	79	555	27738	555	69091655
699	287	3990	-313	-978	-9082	-69	119	79	556	27767	556	69091656
682	284	3986	-314	-975	-9103	-71	125	81	557	27861	557	69091661
693	273	3982	-315	-982	-9072	-71	125	81	558	27888	558	69091662
712	256	4000	-317	-978	-9071	-71	125	81	559	27917	559	69091662
712	267	3982	-317	-971	-9115	-70	122	78	560	28011	560	69091667
704	286	3982	-312	-976	-9101	-70	122	78	561	28038	561	69091668
684	295	3986	-313	-977	-9095	-70	122	78	562	28067	562	69091674
682	277	3967	-318	-981	-9088	-73	129	81	563	28161	563	69091675
699	272	3953	-317	-982	-9086	-73	129	81	564	28188	564	69091675
715	268	3996	-312	-978	-9068	-73	129	81	565	28211	565	69091681
716	283	4011	-307	-981	-9100	-71	131	77	566	28305	566	69091682
704	267	4009	-311	-978	-9100	-71	131	77	567	28337	567	69091685
716	260	3977	-313	-984	-9093	-71	131	77	568	28366	568	69091685
704	249	4002	-316	-984	-9126	-68	136	82	569	28460	569	69091693
699	262	3999	-313	-978	-9099	-68	136	82	570	28487	570	69091694
693	271	4018	-313	-977	-9042	-68	136	82	571	28516	571	69091694
705	264	4019	-315	-981	-9068	-72	138	86	572	28610	572	69091700
732	263	3992	-315	-975	-9059	-72	138	86	573	28637	573	69091702
698	263	3996	-314	-984	-9085	-72	138	86	574	28666	574	69091706
700	272	3977	-307	-976	-9094	-75	149	83	575	28760	575	69091707
697	281	3982	-310	-982	-9078	-75	149	83	576	28787	576	69091707
721	286	3986	-314	-987	-9093	-75	149	83	577	28816	577	69091714
744	271	4009	-316	-985	-9094	-77	147	83	578	28910	578	69091715
736	257	3976	-318	-985	-9072	-77	147	83	579	28937	579	69091720
698	268	3988	-309	-975	-9084	-77	147	83	580	28966	580	69091724
707	270	3990	-307	-969	-9078	-72	152	86	581	29060	581	69091725
709	280	4011	-308	-974	-9078	-72	152	86	582	29087	582	69091726
703	283	4005	-316	-980	-9066	-72	152	86	583	29116	583	69091727
724	263	3989	-316	-984	-9049	-73	155	85	584	29210	584	69091732
723	260	3968	-310	-986	-9085	-73	155	85	585	29237	585	69091733
698	264	3995	-307	-974	-9105	-73	155	85	586	29266	586	69091733
687	276	4004	-308	-978	-9106	-72	164	80	587	29360	587	69091739
690	267	4011	-312	-978	-9098	-72	164	80	588	29387	588	69091739
720	265	3986	-315	-984	-9079	-72	164	80	589	29416	589	69091746
712	268	3990	-314	-986	-9084	-65	163	83	590	29510	590	69091746
691	269	3984	-310	-979	-9115	-65	163	83	591	29537	591	69091747
699	272	3982	-312	-976	-9080	-65	163	83	592	29566	592	69091752
698	274	4006	-317	-978	-9080	-67	169	79	593	29654	593	69091753
712	272	4001	-315	-978	-9079	-67	169	79	594	29687	594	69091756
696	273	3970	-312	-982	-9096	-67	169	79	595	29710	595	69091756
703	280	4009	-314	-980	-9060	-67	173	85	596	29804	596	69091765
705	272	4012	-316	-983	-9035	-67	173	85	597	29836	597	69091766
706	253	4002	-313	-981	-9081	-67	173	85	598	29860	598	69091767
703	265	4015	-309	-977	-9106	-67	173	91	599	29954	599	69091771
708	256	4008	-312	-985	-9097	-67	173	91	600	29986	600	69091772
685	259	3998	-313	-982	-9076	-67	173	91	601	30015	601	69091777
694	264	4003	-319	-979	-9052	-67	179	85	602	30109	602	69091778
705	258	3983	-321	-981	-9094	-67	179	85	603	30136	603	69091778
698	270	3993	-309	-981	-9095	-67	179	85	604	30165	604	69091785
689	263	3992	-308	-972	-9100	-59	185	83	605	30259	605	69091786
693	259	3977	-310	-973	-9109	-59	185	83	606	30286	606	69091791
685	257	3995	-314	-971	-9087	-59	185	83	607	30315	607	69091792
696	258	4005	-316	-980	-9069	-60	186	90	608	30409	608	69091792
696	260	3971	-317	-986	-9085	-60	186	90	609	30436	609	69091795
711	268	3983	-312	-983	-9105	-60	186	90	610	30465	610	69091795
706	264	3999	-310	-981	-9104	-57	187	91	611	30559	611	69091803
705	254	3998	-311	-978	-9089	-57	187	91	612	30586	612	69091804
679	251	3996	-312	-975	-9096	-57	187	91	613	30615	613	69091804
669	271	3995	-310	-982	-9074	-62	194	84	614	30709	614	69091810
691	261	4003	-308	-978	-9064	-62	194	84	615	30736	615	69091810
725	248	4000	-312	-984	-9082	-62	194	84	616	30765	616	69091817
729	245	3986	-311	-979	-9085	-56	194	86	617	30859	617	69091818
722	257	3989	-313	-974	-9094	-56	194	86	618	30886	618	69091818
702	265	3979	-307	-971	-9072	-56	194	86	619	30915	619	69091824
686	270	3998	-309	-972	-9065	-52	198	94	620	31009	620	69091824
696	273	3982	-313	-975	-9063	-52	198	94	621	31036	621	69091827
715	256	3987	-316	-986	-9084	-52	198	94	622	31065	622	69091828
698	257	4011	-318	-977	-9091	-50	194	90	623	31159	623	69091836
710	240	3989	-313	-978	-9052	-50	194	90	624	31186	624	69091837
705	273	3980	-310	-973	-9097	-50	194	90	625	31215	625	69091838
703	262	4004	-310	-972	-9096	-46	204	88	626	31309	626	69091842
721	264	4016	-312	-982	-9070	-46	204	88	627	31336	627	69091843
718	251	4022	-313	-972	-9060	-46	204	88	628	31365	628	69091849
735	247	4018	-310	-975	-9088	-41	211	93	629	31459	629	69091849
724	258	3996	-313	-980	-9089	-41	211	93	630	31486	630	69091849
704	255	3989	-313	-980	-9096	-41	211	93	631	31515	631	69091856
705	250	3983	-311	-980	-9094	-37	211	99	632	31609	632	69091857
707	260	4006	-310	-980	-9065	-37	211	99	633	31636	633	69091862
714	266	3988	-310	-972	-9052	-37	211	99	634	31665	634	69091863
704	284	4014	-312	-976	-9083	-35	209	91	635	31759	635	69091863
701	267	4018	-312	-976	-9069	-35	209	91	636	31786	636	69091866
710	259	3984	-315	-981	-9099	-35	209	91	637	31815	637	69091867
697	264	3979	-313	-981	-9093	-35	213	93	638	31909	638	69091875
700	275	3975	-311	-971	-9084	-35	213	93	639	31936	639	69091875
710	253	3995	-317	-975	-9088	-35	213	93	640	31965	640	69091876
717	250	3988	-315	-977	-9083	-32	220	94	641	32059	641	69091882
718	251	3980	-313	-978	-9066	-32	220	94	642	32086	642	69091883
722	250	3996	-312	-977	-9075	-32	220	94	643	32115	643	69091888
725	241	4001	-308	-972	-9076	-29	221	97	644	32209	644	69091889
714	242	3990	-309	-973	-9087	-29	221	97	645	32236	645	69091889
711	264	4001	-313	-981	-9077	-29	221	97	646	32265	646	69091895
718	240	3986	-314	-982	-9062	-24	222	94	647	32359	647	69091895
715	242	3990	-313	-987	-9092	-24	222	94	648	32386	648	69091898
706	260	4011	-310	-972	-9092	-24	222	94	649	32415	649	69091899
695	238	4006	-311	-970	-9078	-19	223	99	650	32509	650	69091899
702	246	3998	-313	-972	-9094	-19	223	99	651	32536	651	69091908
697	248	3979	-315	-984	-9089	-19	223	99	652	32565	652	69091909
701	256	3985	-313	-983	-9085	-20	224	96	653	32659	653	69091914
723	263	3990	-310	-981	-9069	-20	224	96	654	32686	654	69091915
704	236	3980	-306	-971	-9126	-20	224	96	655	32715	655	69091920
712	245	3975	-314	-978	-9097	-14	228	98	656	32809	656	69091925
722	238	3979	-315	-981	-9098	-14	228	98	657	32836	657	69091925
716	231	3990	-312	-981	-9102	-14	228	98	658	32865	658	69091927
716	241	3980	-311	-986	-9063	-10	232	96	659	32959	659	69091928
709	249	3980	-311	-978	-9072	-10	232	96	660	32986	660	69091934
720	248	3991	-313	-986	-9092	-10	232	96	661	33015	661	69091934
711	251	3994	-311	-985	-9075	-6	226	104	662	33109	662	69091934
712	240	3981	-313	-977	-9125	-6	226	104	663	33136	663	69091937
697	260	3998	-313	-976	-9092	-6	226	104	664	33165	664	69091938
697	259	3997	-313	-975	-9068	-2	230	98	665	33259	665	69091946
705	258	4002	-314	-978	-9079	-2	230	98	666	33286	666	69091946
720	248	4003	-313	-980	-9086	-2	230	98	667	33315	667	69091947
722	246	4025	-313	-976	-9098	-3	225	101	668	33409	668	69091952
705	235	4027	-314	-973	-9108	-3	225	101	669	33436	669	69091953
725	244	4018	-311	-970	-9092	-3	225	101	670	33465	670	69091958
712	234	4006	-312	-968	-9073	1	233	99	671	33559	671	69091959
707	245	3994	-314	-979	-9088	1	233	99	672	33586	672	69091959
725	246	3980	-312	-979	-9072	1	233	99	673	33615	673	69091966
733	241	3985	-311	-977	-9093	6	230	100	674	33709	674	69091966
736	253	3985	-312	-977	-9120	6	230	100	675	33736	675	69091972
712	257	3973	-314	-975	-9118	6	230	100	676	33765	676	69091973
714	251	3972	-313	-979	-9077	10	236	102	677	33859	677	69091973
715	246	3981	-314	-982	-9049	10	236	102	678	33886	678	69091979
732	255	3999	-313	-978	-9055	10	236	102	679	33915	679	69091979
737	245	4009	-313	-983	-9099	14	232	104	680	34009	680	69091985
732	245	4012	-312	-980	-9083	14	232	104	681	34036	681	69091985
728	251	3999	-313	-976	-9111	14	232	104	682	34065	682	69091985
713	251	3989	-312	-984	-9106	17	235	105	683	34159	683	69091991
696	248	4004	-310	-976	-9096	17	235	105	684	34186	684	69091991
733	249	3977	-317	-979	-9087	17	235	105	685	34215	685	69091998
727	246	3992	-317	-984	-9109	28	238	102	686	34309	686	69091999
743	256	4003	-317	-975	-9082	28	238	102	687	34336	687	69092004
742	248	4003	-310	-981	-9088	28	238	102	688	34365	688	69092005
738	255	4009	-312	-975	-9086	28	238	102	689	34459	689	69092005
738	242	4005	-314	-978	-9055	28	238	102	690	34486	690	69092008
724	255	3984	-315	-980	-9047	28	238	102	691	34515	691	69092008
714	258	3994	-311	-976	-9097	35	233	105	692	34609	692	69092017
726	283	4006	-309	-977	-9086	35	233	105	693	34636	693	69092017
704	265	3991	-313	-976	-9110	35	233	105	694	34665	694	69092017
722	246	3985	-312	-972	-9107	33	237	105	695	34759	695	69092023
729	235	4010	-312	-982	-9069	33	237	105	696	34786	696	69092023
741	251	4021	-313	-974	-9069	33	237	105	697	34815	697	69092029
737	259	4010	-314	-982	-9077	42	238	108	698	34909	698	69092030
730	254	4003	-313	-979	-9085	42	238	108	699	34936	699	69092031
724	246	3982	-314	-976	-9071	42	238	108	700	34965	700	69092037
726	236	3977	-313	-980	-9107	46	236	102	701	35059	701	69092038
745	236	3984	-311	-979	-9085	46	236	102	702	35086	702	69092044
724	235	4000	-310	-977	-9061	46	236	102	703	35115	703	69092045
721	241	3987	-313	-980	-9070	49	231	105	704	35209	704	69092045
736	247	4008	-312	-976	-9115	49	231	105	705	35236	705	69092051
719	247	3970	-311	-975	-9091	49	231	105	706	35265	706	69092051
730	256	3968	-314	-978	-9103	52	232	108	707	35359	707	69092056
732	256	3979	-312	-977	-9114	52	232	108	708	35386	708	69092057
724	262	4006	-313	-987	-9092	52	232	108	709	35415	709	69092057
736	257	3999	-315	-987	-9076	55	227	105	710	35509	710	69092062
734	257	3989	-313	-982	-9088	55	227	105	711	35536	711	69092063
733	259	3998	-308	-978	-9083	55	227	105	712	35565	712	69092070
742	256	4003	-312	-969	-9092	63	231	109	713	35659	713	69092070
749	256	3973	-314	-975	-9126	63	231	109	714	35686	714	69092070
747	230	4007	-314	-980	-9090	63	231	109	715	35715	715	69092076
747	232	4001	-310	-976	-9063	62	232	106	716	35809	716	69092076
729	233	3996	-307	-978	-9071	62	232	106	717	35836	717	69092080
735	250	3987	-308	-977	-9120	62	232	106	718	35865	718	69092080
738	249	3980	-310	-977	-9100	63	223	113	719	35959	719	69092089
739	254	3983	-314	-980	-9093	63	223	113	720	35986	720	69092089
724	246	3991	-316	-974	-9092	63	223	113	721	36015	721	69092089
727	246	4012	-312	-981	-9084	70	224	110	722	36109	722	69092095
724	264	4023	-310	-985	-9073	70	224	110	723	36136	723	69092096
718	272	3988	-314	-982	-9060	70	224	110	724	36165	724	69092102
729	265	3994	-314	-980	-9074	73	225	109	725	36253	725	69092103
721	260	3986	-317	-974	-9073	73	225	109	726	36286	726	69092104
748	232	3990	-313	-979	-9111	73	225	109	727	36315	727	69092109
744	229	3990	-311	-979	-9099	86	224	108	728	36409	728	69092112
731	234	4003	-310	-969	-9099	86	224	108	729	36436	729	69092115
726	240	4012	-310	-981	-9080	86	224	108	730	36465	730	69092116
759	246	4014	-312	-983	-9081	84	216	110	731	36559	731	69092117
761	266	4012	-310	-978	-9091	84	216	110	732	36586	732	69092123
736	255	4010	-311	-982	-9095	84	216	110	733	36615	733	69092123
722	258	4012	-310	-977	-9116	93	217	113	734	36709	734	69092127
724	248	3989	-305	-978	-9103	93	217	113	735	36736	735	69092128
754	243	3994	-309	-976	-9069	93	217	113	736	36765	736	69092128
752	261	4010	-308	-973	-9084	86	214	110	737	36859	737	69092134
743	283	4005	-309	-976	-9091	86	214	110	738	36886	738	69092134
755	265	4010	-310	-981	-9105	86	214	110	739	36915	739	69092141
738	259	4010	-318	-979	-9097	93	217	113	740	37009	740	69092141
748	255	4020	-316	-983	-9109	93	217	113	741	37036	741	69092142
737	270	3989	-309	-974	-9066	93	217	113	742	37065	742	69092147
725	263	3979	-309	-979	-9097	97	207	117	743	37159	743	69092148
734	263	3994	-309	-984	-9125	97	207	117	744	37186	744	69092151
741	247	3998	-315	-977	-9084	97	207	117	745	37215	745	69092151
741	236	3987	-316	-978	-9075	104	210	114	746	37309	746	69092182
726	243	3993	-313	-978	-9058	104	210	114	747	37336	747	69092183
725	254	3999	-312	-982	-9059	104	210	114	748	37365	748	69092183
730	272	3993	-311	-979	-9087	107	199	121	749	37459	749	69092184
743	258	3993	-312	-977	-9083	107	199	121	750	37486	750	69092184
753	251	4002	-309	-981	-9086	107	199	121	751	37515	751	69092185
730	266	3985	-309	-980	-9100	105	205	117	752	37603	752	69092185
737	258	3997	-310	-977	-9144	105	205	117	753	37636	753	69092186
757	257	3997	-311	-978	-9090	105	205	117	754	37665	754	69092187
760	262	3984	-317	-974	-9075	113	193	121	755	37759	755	69092188
763	265	3996	-313	-973	-9080	113	193	121	756	37786	756	69092191
740	263	4014	-312	-975	-9099	113	193	121	757	37815	757	69092191
750	249	4013	-315	-975	-9146	110	194	120	758	37909	758	69092192
743	254	3994	-316	-978	-9124	110	194	120	759	37936	759	69092192
750	237	3998	-314	-978	-9065	110	194	120	760	37965	760	69092192
746	255	4010	-309	-975	-9095	119	187	125	761	38053	761	69092198
739	259	4007	-313	-981	-9082	119	187	125	762	38086	762	69092199
756	257	4033	-314	-974	-9067	119	187	125	763	38115	763	69092199
746	252	4012	-313	-974	-9085	121	189	127	764	38209	764	69092205
744	258	4005	-317	-984	-9096	121	189	127	765	38236	765	69092205
738	261	3995	-310	-972	-9087	121	189	127	766	38265	766	69092211
752	261	4007	-310	-976	-9061	126	178	122	767	38359	767	69092211
754	267	3965	-309	-981	-9071	126	178	122	768	38386	768	69092211
751	251	3986	-315	-982	-9095	126	178	122	769	38415	769	69092219
763	260	3993	-319	-986	-9091	125	175	135	770	38509	770	69092219
753	265	3977	-314	-978	-9100	125	175	135	771	38536	771	69092222
741	254	4014	-315	-974	-9085	125	175	135	772	38565	772	69092223
748	263	3998	-311	-976	-9069	130	174	128	773	38659	773	69092231
764	255	3974	-311	-970	-9087	130	174	128	774	38686	774	69092231
761	235	4020	-309	-981	-9084	130	174	128	775	38715	775	69092232
755	253	4005	-309	-982	-9077	127	169	143	776	38809	776	69092237
739	258	4016	-311	-975	-9056	127	169	143	777	38836	777	69092238
758	252	3982	-312	-982	-9070	127	169	143	778	38865	778	69092244
744	258	3995	-311	-976	-9079	131	163	129	779	38959	779	69092244
767	261	4009	-311	-975	-9097	131	163	129	780	38986	780	69092245
748	260	3979	-304	-970	-9121	131	163	129	781	39015	781	69092251
736	264	4025	-308	-966	-9080	130	160	140	782	39109	782	69092254
738	273	4027	-313	-971	-9097	130	160	140	783	39136	783	69092257
749	247	3989	-322	-979	-9088	130	160	140	784	39165	784	69092258
759	246	4007	-318	-980	-9072	135	145	137	785	39259	785	69092258
761	248	3997	-312	-984	-9089	135	145	137	786	39286	786	69092261
751	265	4010	-305	-971	-9118	135	145	137	787	39315	787	69092263
745	268	4002	-305	-974	-9077	121	145	147	788	39409	788	69092270
737	271	4016	-315	-980	-9111	121	145	147	789	39436	789	69092270
726	249	3983	-313	-981	-9080	121	145	147	790	39465	790	69092272
741	236	3973	-311	-980	-9062	133	143	145	791	39559	791	69092276
744	246	3990	-312	-974	-9075	133	143	145	792	39586	792	69092276
754	265	4003	-310	-975	-9085	133	143	145	793	39615	793	69092284
738	266	3987	-311	-981	-9087	118	138	146	794	39709	794	69092284
729	258	3998	-312	-980	-9090	118	138	146	795	39736	795	69092284
750	273	3986	-314	-980	-9078	118	138	146	796	39765	796	69092290
761	265	3975	-310	-979	-9085	129	131	155	797	39859	797	69092290
753	278	3987	-311	-977	-9095	129	131	155	798	39886	798	69092294
760	253	3985	-314	-977	-9060	129	131	155	799	39915	799	69092294
768	258	3996	-313	-975	-9078	116	130	148	800	40009	800	69092294
753	259	3990	-312	-973	-9085	116	130	148	801	40036	801	69092302
748	263	4009	-311	-980	-9103	116	130	148	802	40065	802	69092303
753	272	3990	-315	-980	-9093	119	125	159	803	40159	803	69092310
749	268	4002	-309	-978	-9080	119	125	159	804	40186	804	69092312
739	258	3980	-304	-980	-9074	119	125	159	805	40215	805	69092314
742	268	3975	-306	-977	-9111	118	116	150	806	40309	806	69092314
734	285	3969	-307	-979	-9090	118	116	150	807	40336	807	69092315
749	258	3991	-310	-976	-9111	118	116	150	808	40365	808	69092323
744	266	3999	-311	-978	-9117	109	119	151	809	40459	809	69092323
760	274	3983	-313	-982	-9076	109	119	151	810	40486	810	69092328
760	262	4010	-308	-976	-9056	109	119	151	811	40515	811	69092329
768	279	3982	-309	-979	-9086	108	106	144	812	40609	812	69092329
746	274	3962	-313	-979	-9105	108	106	144	813	40636	813	69092332
739	268	3986	-316	-980	-9106	108	106	144	814	40665	814	69092333
744	263	3979	-313	-982	-9117	109	115	163	815	40759	815	69092342
751	266	3989	-315	-977	-9080	109	115	163	816	40786	816	69092342
772	269	3998	-316	-977	-9075	109	115	163	817	40815	817	69092343
758	276	4014	-316	-977	-9071	102	98	144	818	40909	818	69092347
744	271	4015	-312	-972	-9065	102	98	144	819	40936	819	69092348
743	255	3980	-313	-984	-9074	102	98	144	820	40965	820	69092353
743	271	3960	-311	-977	-9061	98	106	160	821	41059	821	69092354
740	277	3974	-311	-974	-9054	98	106	160	822	41086	822	69092354
753	283	3994	-311	-979	-9065	98	106	160	823	41115	823	69092361
777	275	3982	-308	-971	-9065	93	95	141	824	41209	824	69092362
753	278	3996	-308	-970	-9057	93	95	141	825	41236	825	69092367
715	274	3968	-307	-978	-9110	93	95	141	826	41265	826	69092368
733	288	3977	-308	-974	-9115	89	101	159	827	41359	827	69092368
756	279	4006	-316	-981	-9097	89	101	159	828	41386	828	69092374
746	251	3966	-315	-978	-9104	89	101	159	829	41415	829	69092375
734	247	3957	-310	-973	-9112	87	93	137	830	41509	830	69092384
751	258	3989	-310	-979	-9089	87	93	137	831	41536	831	69092386
732	275	4017	-306	-976	-9098	87	93	137	832	41565	832	69092387
726	275	3992	-315	-982	-9120	84	98	144	833	41659	833	69092388
743	274	3982	-316	-981	-9088	84	98	144	834	41686	834	69092389
761	284	3994	-310	-974	-9080	84	98	144	835	41715	835	69092394
770	291	4001	-312	-979	-9054	81	83	135	836	41809	836	69092395
751	279	3982	-310	-979	-9087	81	83	135	837	41836	837	69092401
754	277	3977	-312	-982	-9090	81	83	135	838	41865	838	69092402
757	286	3982	-311	-987	-9093	77	87	143	839	41959	839	69092402
739	291	3965	-308	-979	-9079	77	87	143	840	41986	840	69092403
750	281	3963	-314	-980	-9115	77	87	143	841	42015	841	69092404
757	280	3970	-318	-981	-9082	68	80	136	842	42109	842	69092412
759	278	3987	-318	-981	-9104	68	80	136	843	42136	843	69092412
752	281	3987	-317	-978	-9093	68	80	136	844	42165	844	69092413
755	284	3988	-312	-975	-9071	75	81	135	845	42259	845	69092418
756	291	3987	-309	-981	-9087	75	81	135	846	42286	846	69092419
747	286	3998	-312	-983	-9106	75	81	135	847	42315	847	69092425
752	271	3992	-310	-980	-9065	66	78	134	848	42409	848	69092425
760	267	3987	-311	-980	-9073	66	78	134	849	42436	849	69092425
757	266	3993	-308	-974	-9086	66	78	134	850	42465	850	69092433
748	276	3995	-308	-976	-9071	64	78	132	851	42559	851	69092433
741	285	3995	-311	-982	-9069	64	78	132	852	42586	852	69092439
747	281	3983	-311	-979	-9105	64	78	132	853	42615	853	69092439
755	283	3995	-310	-984	-9069	59	75	131	854	42709	854	69092440
745	281	4020	-311	-984	-9077	59	75	131	855	42736	855	69092445
767	287	3995	-312	-974	-9060	59	75	131	856	42765	856	69092446
739	282	3987	-312	-979	-9065	59	73	121	857	42859	857	69092452
732	262	3976	-315	-976	-9075	59	73	121	858	42886	858	69092453
738	275	4008	-314	-977	-9108	59	73	121	859	42915	859	69092453
744	267	3992	-311	-981	-9110	57	73	121	860	43009	860	69092458
753	280	3991	-311	-975	-9070	57	73	121	861	43036	861	69092458
723	271	4000	-312	-978	-9069	57	73	121	862	43065	862	69092465
732	277	3986	-307	-978	-9077	55	67	117	863	43159	863	69092465
746	278	3992	-309	-978	-9076	55	67	117	864	43186	864	69092471
752	283	3995	-306	-984	-9073	55	67	117	865	43215	865	69092471
725	282	3997	-305	-984	-9077	56	70	116	866	43309	866	69092472
742	286	3985	-307	-980	-9071	56	70	116	867	43336	867	69092475
732	289	3985	-307	-979	-9055	56	70	116	868	43365	868	69092475
741	279	3969	-310	-974	-9102	52	56	114	869	43459	869	69092483
746	277	3990	-311	-980	-9107	52	56	114	870	43486	870	69092484
754	311	4006	-315	-980	-9086	52	56	114	871	43515	871	69092484
743	282	3989	-317	-979	-9088	54	64	122	872	43609	872	69092489
744	275	4002	-315	-982	-9080	54	64	122	873	43636	873	69092490
730	280	3974	-308	-975	-9048	54	64	122	874	43665	874	69092496
724	290	3968	-306	-977	-9085	44	62	106	875	43759	875	69092497
724	291	4006	-304	-978	-9057	44	62	106	876	43786	876	69092498
730	280	3974	-313	-976	-9090	44	62	106	877	43815	877	69092504
751	264	3977	-317	-982	-9087	46	62	114	878	43909	878	69092505
751	275	3988	-317	-986	-9075	46	62	114	879	43936	879	69092510
745	295	3973	-306	-977	-9111	46	62	114	880	43965	880	69092515
756	283	3995	-307	-983	-9091	43	61	109	881	44059	881	69092515
749	286	3993	-311	-981	-9063	43	61	109	882	44086	882	69092517
741	292	3969	-311	-984	-9081	43	61	109	883	44115	883	69092517
739	305	3983	-309	-989	-9097	40	58	112	884	44209	884	69092523
739	303	3997	-309	-980	-9092	40	58	112	885	44236	885	69092523
755	273	3974	-312	-985	-9051	40	58	112	886	44265	886	69092523
751	284	3989	-313	-984	-9082	39	57	103	887	44359	887	69092529
729	291	4000	-315	-982	-9105	39	57	103	888	44386	888	69092529
736	295	3984	-311	-975	-9070	39	57	103	889	44415	889	69092536
737	290	4002	-311	-976	-9082	35	59	109	890	44509	890	69092537
739	291	3997	-316	-978	-9090	35	59	109	891	44536	891	69092537
768	268	3984	-317	-980	-9093	35	59	109	892	44565	892	69092542
745	286	3995	-314	-974	-9089	32	54	98	893	44659	893	69092543
734	282	3983	-310	-973	-9071	32	54	98	894	44686	894	69092546
721	293	3993	-310	-978	-9088	32	54	98	895	44715	895	69092547
727	303	4013	-308	-978	-9089	29	55	103	896	44809	896	69092555
735	285	3996	-313	-978	-9096	29	55	103	897	44836	897	69092555
741	288	3997	-311	-977	-9087	29	55	103	898	44865	898	69092556
741	307	3973	-306	-971	-9055	19	51	101	899	44959	899	69092561
738	312	3979	-307	-976	-9106	19	51	101	900	44986	900	69092562
731	302	3987	-310	-978	-9108	19	51	101	901	45015	901	69092567
719	291	3997	-311	-983	-9087	22	48	96	902	45109	902	69092587
733	291	4013	-312	-987	-9099	22	48	96	903	45136	903	69092587
750	288	3983	-314	-981	-9087	22	48	96	904	45165	904	69092587
735	290	3996	-312	-985	-9065	22	54	90	905	45259	905	69092587
715	282	3974	-311	-978	-9092	22	54	90	906	45286	906	69092588
733	288	3993	-311	-981	-9112	22	54	90	907	45315	907	69092588
734	294	3989	-314	-982	-9088	25	53	95	908	45409	908	69092588
738	298	3980	-312	-974	-9101	25	53	95	909	45436	909	69092588
726	300	3994	-310	-979	-9082	25	53	95	910	45465	910	69092589
725	300	3996	-310	-979	-9082	17	55	89	911	45559	911	69092593
742	295	3999	-311	-981	-9088	17	55	89	912	45586	912	69092594
747	293	3964	-307	-984	-9102	17	55	89	913	45615	913	69092594
747	297	3988	-309	-978	-9084	15	49	91	914	45709	914	69092600
741	294	4004	-311	-977	-9100	15	49	91	915	45736	915	69092600
730	298	4024	-312	-985	-9110	15	49	91	916	45765	916	69092607
728	283	4022	-311	-981	-9090	7	53	93	917	45859	917	69092607
750	276	4007	-310	-985	-9089	7	53	93	918	45886	918	69092608
735	299	3995	-312	-978	-9075	7	53	93	919	45915	919	69092614
740	295	3990	-315	-981	-9100	11	49	83	920	46009	920	69092614
740	292	3967	-312	-985	-9098	11	49	83	921	46036	921	69092621
730	284	4001	-312	-973	-9100	11	49	83	922	46065	922	69092621
737	290	3997	-312	-979	-9084	5	53	91	923	46159	923	69092621
731	302	4005	-309	-979	-9089	5	53	91	924	46186	924	69092625
723	294	3991	-313	-981	-9065	5	53	91	925	46215	925	69092625
730	295	3973	-311	-979	-9080	8	54	80	926	46309	926	69092632
736	284	3990	-313	-975	-9118	8	54	80	927	46336	927	69092633
732	299	3980	-312	-984	-9089	8	54	80	928	46365	928	69092640
744	316	3982	-310	-981	-9096	9	55	83	929	46459	929	69092640
741	313	3987	-310	-982	-9060	9	55	83	930	46486	930	69092640
742	298	3996	-321	-981	-9083	9	55	83	931	46515	931	69092646
738	280	3992	-318	-980	-9100	8	56	84	932	46609	932	69092647
730	276	3984	-314	-977	-9086	8	56	84	933	46636	933	69092653
713	286	4021	-311	-979	-9062	8	56	84	934	46659	934	69092653
715	282	3989	-314	-979	-9090	5	53	85	935	46753	935	69092654
718	280	4005	-317	-981	-9078	5	53	85	936	46785	936	69092659
722	281	3994	-314	-983	-9088	5	53	85	937	46814	937	69092659
724	278	4005	-311	-972	-9108	2	58	74	938	46908	938	69092665
718	288	4011	-310	-976	-9082	2	58	74	939	46935	939	69092665
719	299	3967	-313	-978	-9084	2	58	74	940	46964	940	69092666
718	286	3998	-313	-976	-9104	-5	57	75	941	47058	941	69092672
719	272	4005	-315	-981	-9106	-5	57	75	942	47085	942	69092672
729	300	3980	-309	-978	-9070	-5	57	75	943	47108	943	69092678
707	306	4004	-307	-982	-9085	1	55	77	944	47202	944	69092679
715	302	3967	-313	-977	-9100	1	55	77	945	47234	945	69092679
726	287	3970	-313	-980	-9112	1	55	77	946	47263	946	69092685
709	284	3982	-309	-985	-9110	0	50	78	947	47357	947	69092685
730	283	4020	-306	-983	-9080	0	50	78	948	47384	948	69092691
734	305	3989	-307	-979	-9074	0	50	78	949	47413	949	69092691
719	295	3981	-311	-984	-9088	-4	56	76	950	47507	950	69092692
712	294	3981	-314	-979	-9093	-4	56	76	951	47534	951	69092697
725	292	3954	-310	-981	-9074	-4	56	76	952	47563	952	69092698
735	298	3979	-307	-980	-9098	-9	57	77	953	47657	953	69092704
719	298	3994	-308	-969	-9049	-9	57	77	954	47684	954	69092705
732	302	3991	-312	-982	-9086	-9	57	77	955	47713	955	69092710
743	311	3964	-314	-983	-9094	-9	57	77	956	47807	956	69092714
732	304	3952	-312	-981	-9120	-9	57	77	957	47834	957	69092717
731	293	3971	-311	-978	-9100	-9	57	77	958	47863	958	69092735
725	297	3964	-310	-979	-9083	-12	56	72	959	47957	959	69092735
718	308	3966	-311	-981	-9103	-12	56	72	960	47984	960	69092736
730	297	3941	-311	-981	-9090	-12	56	72	961	48013	961	69092736
713	291	3947	-314	-980	-9083	-19	57	81	962	48107	962	69092737
703	282	3971	-319	-981	-9097	-19	57	81	963	48134	963	69092737
705	268	4045	-321	-975	-9082	-19	57	81	964	48163	964	69092738
695	248	4105	-322	-973	-9076	-24	60	76	965	48257	965	69092738
720	258	4156	-312	-976	-9063	-24	60	76	966	48284	966	69092739
725	315	4115	-304	-972	-9088	-24	60	76	967	48307	967	69092739
734	349	4096	-299	-980	-9070	-19	61	73	968	48405	968	69092745
729	323	3968	-305	-990	-9047	-19	61	73	969	48438	969	69092745
747	250	3814	-319	-996	-9099	-19	61	73	970	48467	970	69092751
739	244	3799	-312	-990	-9103	-23	67	73	971	48561	971	69092751
723	249	3846	-303	-973	-9071	-23	67	73	972	48588	972	69092751
712	281	3949	-301	-959	-9063	-23	67	73	973	48617	973	69092757
707	308	4039	-300	-953	-9056	-21	63	79	974	48711	974	69092758
692	329	4115	-306	-956	-9069	-21	63	79	975	48738	975	69092765
707	320	4176	-316	-966	-9095	-21	63	79	976	48761	976	69092765
707	308	4166	-315	-972	-9111	-27	61	77	977	48859	977	69092771
701	290	4015	-311	-985	-9123	-27	61	77	978	48892	978	69092771
697	289	3880	-302	-988	-9082	-27	61	77	979	48921	979	69092771
708	293	3806	-302	-992	-9088	-27	67	77	980	49015	980	69092779
724	302	3757	-310	-991	-9099	-27	67	77	981	49042	981	69092779
708	269	3847	-330	-976	-9098	-27	67	77	982	49071	982	69092785
707	253	3944	-335	-981	-9126	-37	65	71	983	49165	983	69092785
708	235	4039	-334	-974	-9116	-37	65	71	984	49192	984	69092786
705	263	4163	-317	-973	-9058	-37	65	71	985	49221	985	69092793
715	299	4203	-307	-971	-9064	-36	70	78	986	49309	986	69092793
706	325	4211	-304	-994	-9102	-36	70	78	987	49325	987	69092821
755	338	4088	-304	-994	-9102	-36	70	78	988	49348	988	69092821
742	321	4012	-305	-991	-9107	-44	68	78	989	49463	989	69092822
733	273	3863	-302	-990	-9122	-44	68	78	990	49492	990	69092824
722	278	3855	-296	-974	-9077	-44	68	78	991	49500	991	69092824
733	269	3860	-304	-967	-9048	-44	68	78	992	49529	992	69092826
699	256	3947	-310	-967	-9089	-42	78	74	993	49623	993	69092826
685	272	4006	-311	-965	-9089	-42	78	74	994	49650	994	69092828
702	285	4064	-308	-963	-9066	-42	78	74	995	49673	995	69092829
690	297	4083	-306	-967	-9091	-43	77	69	996	49767	996	69092829
700	304	4081	-312	-974	-9071	-43	77	69	997	49799	997	69092831
698	324	4042	-313	-985	-9079	-43	77	69	998	49828	998	69092832
708	326	3980	-314	-985	-9085	-48	74	70	999	49922	999	69092833
734	337	3940	-311	-983	-9048	-48	74	70	1000	49949	1000	69092834
712	312	3915	-319	-992	-9091	-48	74	70	1001	49978	1001	69092834
712	286	3915	-326	-987	-9062	-49	81	75	1002	50072	1002	69092837
714	258	3938	-330	-985	-9051	-49	81	75	1003	50099	1003	69092838
692	237	3964	-322	-985	-9060	-49	81	75	1004	50128	1004	69092845
701	258	4007	-322	-979	-9080	-52	80	78	1005	50222	1005	69092846
698	283	4040	-317	-981	-9089	-52	80	78	1006	50249	1006	69092847
712	284	4039	-311	-982	-9069	-52	80	78	1007	50278	1007	69092851
723	299	4045	-310	-986	-9086	-48	84	74	1008	50366	1008	69092852
734	321	4032	-302	-976	-9105	-48	84	74	1009	50399	1009	69092857
733	327	4006	-300	-971	-9068	-48	84	74	1010	50428	1010	69092858
696	321	4000	-298	-976	-9061	-54	84	70	1011	50522	1011	69092858
694	311	3985	-298	-978	-9080	-54	84	70	1012	50549	1012	69092864
712	285	3953	-302	-976	-9073	-54	84	70	1013	50578	1013	69092864
689	284	3938	-305	-983	-9085	-57	89	81	1014	50672	1014	69092870
690	277	3958	-307	-980	-9090	-57	89	81	1015	50699	1015	69092870
683	263	3969	-314	-977	-9075	-57	89	81	1016	50728	1016	69092871
699	275	3974	-313	-982	-9077	-61	87	77	1017	50822	1017	69092876
717	278	3971	-316	-976	-9100	-61	87	77	1018	50849	1018	69092877
704	319	3991	-318	-980	-9088	-61	87	77	1019	50878	1019	69092884
713	341	4013	-316	-984	-9104	-58	94	76	1020	50972	1020	69092884
710	326	4013	-322	-982	-9126	-58	94	76	1021	50999	1021	69092890
715	284	4032	-328	-988	-9082	-58	94	76	1022	51028	1022	69092890
715	282	4034	-328	-980	-9080	-64	98	78	1023	51122	1023	69092890
715	263	4017	-325	-980	-9085	-64	98	78	1024	51149	1024	69092896
709	256	4007	-315	-994	-9104	-64	98	78	1025	51178	1025	69092897
728	246	3995	-315	-987	-9086	-61	93	75	1026	51272	1026	69092903
715	248	3976	-315	-981	-9105	-61	93	75	1027	51299	1027	69092904
719	273	3962	-310	-982	-9111	-61	93	75	1028	51328	1028	69092905
707	291	3948	-309	-976	-9075	-65	101	79	1029	51422	1029	69092909
697	286	3954	-304	-973	-9075	-65	101	79	1030	51449	1030	69092909
719	280	4015	-308	-970	-9105	-65	101	79	1031	51478	1031	69092916
723	270	4017	-305	-969	-9077	-68	106	84	1032	51572	1032	69092917
720	276	4036	-302	-975	-9095	-68	106	84	1033	51599	1033	69092918
701	270	4004	-297	-967	-9071	-68	106	84	1034	51628	1034	69092923
702	271	4005	-299	-969	-9054	-59	111	77	1035	51722	1035	69092924
694	277	3989	-303	-977	-9068	-59	111	77	1036	51749	1036	69092929
674	277	3940	-308	-978	-9095	-59	111	77	1037	51778	1037	69092933
696	284	3939	-310	-985	-9044	-64	108	78	1038	51872	1038	69092933
724	300	3902	-311	-980	-9051	-64	108	78	1039	51899	1039	69092935
683	310	3934	-315	-981	-9080	-64	108	78	1040	51928	1040	69092935
687	298	3970	-321	-980	-9067	-71	111	81	1041	52022	1041	69092941
682	299	4021	-320	-975	-9067	-71	111	81	1042	52049	1042	69092941
705	279	4078	-320	-990	-9054	-71	111	81	1043	52078	1043	69092941
715	282	4095	-320	-987	-9094	-68	118	80	1044	52172	1044	69092947
720	293	4082	-321	-981	-9102	-68	118	80	1045	52199	1045	69092948
731	273	4017	-315	-988	-9090	-68	118	80	1046	52227	1046	69092955
730	259	3999	-313	-982	-9096	-76	122	76	1047	52321	1047	69092955
739	262	3955	-315	-983	-9052	-76	122	76	1048	52348	1048	69092955
714	256	3886	-314	-985	-9074	-76	122	76	1049	52377	1049	69092961
689	267	3893	-311	-979	-9100	-73	127	79	1050	52471	1050	69092961
691	280	3919	-309	-978	-9094	-73	127	79	1051	52498	1051	69092967
720	269	4007	-312	-972	-9063	-73	127	79	1052	52527	1052	69092968
711	263	4052	-309	-967	-9068	-78	128	84	1053	52621	1053	69092973
695	266	4053	-305	-970	-9085	-78	128	84	1054	52648	1054	69092974
715	278	4026	-300	-976	-9056	-78	128	84	1055	52677	1055	69092974
710	280	4022	-305	-979	-9077	-76	136	86	1056	52771	1056	69092980
717	278	3983	-304	-985	-9086	-76	136	86	1057	52798	1057	69092982
676	276	3913	-300	-973	-9066	-76	136	86	1058	52827	1058	69092987
691	280	3917	-303	-978	-9079	-69	133	81	1059	52921	1059	69092988
713	286	3918	-308	-983	-9063	-69	133	81	1060	52948	1060	69092988
695	278	3921	-315	-985	-9080	-69	133	81	1061	52977	1061	69092994
699	258	3971	-317	-989	-9091	-69	141	83	1062	53071	1062	69092994
706	246	4006	-320	-989	-9073	-69	141	83	1063	53098	1063	69093000
705	275	4025	-318	-987	-9109	-69	141	83	1064	53127	1064	69093002
706	273	4038	-321	-989	-9106	-71	147	87	1065	53221	1065	69093003
697	262	4045	-321	-987	-9078	-71	147	87	1066	53248	1066	69093006
705	257	4004	-318	-985	-9096	-71	147	87	1067	53277	1067	69093007
714	264	4018	-315	-980	-9053	-66	144	86	1068	53371	1068	69093012
706	272	4000	-314	-975	-9060	-66	144	86	1069	53398	1069	69093013
698	270	3956	-317	-978	-9064	-66	144	86	1070	53421	1070	69093013
704	256	3966	-317	-971	-9074	-69	147	79	1071	53515	1071	69093019
700	255	3972	-309	-975	-9097	-69	147	79	1072	53547	1072	69093019
725	277	4008	-306	-972	-9064	-69	147	79	1073	53576	1073	69093026
710	275	4019	-303	-972	-9048	-70	156	82	1074	53670	1074	69093026
707	273	4004	-310	-978	-9080	-70	156	82	1075	53697	1075	69093026
722	242	4001	-306	-980	-9100	-70	156	82	1076	53726	1076	69093032
707	247	3976	-305	-982	-9085	-68	160	80	1077	53820	1077	69093032
685	248	3970	-302	-976	-9109	-68	160	80	1078	53847	1078	69093038
703	270	3992	-301	-970	-9083	-68	160	80	1079	53876	1079	69093038
681	271	3994	-303	-977	-9056	-73	163	85	1080	53970	1080	69093039
691	273	4006	-307	-986	-9066	-73	163	85	1081	53997	1081	69093045
712	250	3969	-315	-990	-9115	-73	163	85	1082	54026	1082	69093045
709	259	4000	-317	-989	-9088	-69	167	87	1083	54120	1083	69093051
695	264	3990	-314	-985	-9114	-69	167	87	1084	54147	1084	69093051
706	288	4015	-313	-981	-9078	-69	167	87	1085	54176	1085	69093058
706	271	4020	-313	-984	-9047	-68	174	86	1086	54270	1086	69093059
696	260	4023	-320	-982	-9077	-68	174	86	1087	54297	1087	69093059
719	278	4006	-320	-985	-9085	-68	174	86	1088	54326	1088	69093066
718	270	3991	-316	-979	-9070	-72	168	88	1089	54420	1089	69093067
709	275	4015	-315	-978	-9092	-72	168	88	1090	54447	1090	69093072
704	243	4026	-318	-974	-9083	-72	168	88	1091	54475	1091	69093072
696	249	4001	-314	-969	-9079	-60	178	90	1092	54569	1092	69093073
700	263	3994	-310	-968	-9086	-60	178	90	1093	54596	1093	69093077
705	263	3991	-312	-971	-9077	-60	178	90	1094	54625	1094	69093078
713	253	4000	-311	-974	-9087	-61	187	85	1095	54719	1095	69093084
710	250	3985	-309	-976	-9103	-61	187	85	1096	54746	1096	69093084
698	248	3961	-305	-972	-9092	-61	187	85	1097	54775	1097	69093085
713	252	3971	-303	-971	-9058	-62	190	90	1098	54863	1098	69093090
714	263	3966	-310	-977	-9077	-62	190	90	1099	54896	1099	69093091
669	283	3968	-310	-976	-9071	-62	190	90	1100	54925	1100	69093097
689	274	4010	-310	-983	-9069	-60	192	86	1101	55019	1101	69093099
697	266	4024	-313	-982	-9089	-60	192	86	1102	55046	1102	69093100
709	272	4020	-314	-980	-9095	-60	192	86	1103	55075	1103	69093104
694	263	4016	-314	-984	-9105	-54	200	88	1104	55163	1104	69093105
700	266	4000	-316	-983	-9070	-54	200	88	1105	55196	1105	69093107
675	245	3986	-314	-985	-9058	-54	200	88	1106	55225	1106	69093108
690	264	3999	-312	-982	-9057	-55	197	85	1107	55319	1107	69093113
705	263	3985	-312	-976	-9058	-55	197	85	1108	55346	1108	69093116
706	243	3956	-315	-987	-9072	-55	197	85	1109	55375	1109	69093117
706	242	3973	-318	-979	-9074	-52	196	90	1110	55469	1110	69093123
711	253	3996	-313	-972	-9069	-52	196	90	1111	55496	1111	69093124
728	260	4011	-308	-978	-9068	-52	196	90	1112	55525	1112	69093128
702	265	4022	-310	-968	-9090	-47	201	91	1113	55619	1113	69093129
706	264	4030	-311	-970	-9089	-47	201	91	1114	55646	1114	69093129
715	253	3982	-311	-979	-9091	-47	201	91	1115	55675	1115	69093136
728	261	3995	-311	-977	-9084	-45	207	87	1116	55769	1116	69093136
721	272	3968	-303	-978	-9075	-45	207	87	1117	55796	1117	69093142
689	271	3974	-303	-975	-9091	-45	207	87	1118	55819	1118	69093142
680	267	3979	-305	-976	-9106	-42	204	88	1119	55913	1119	69093142
705	257	3968	-313	-986	-9107	-42	204	88	1120	55946	1120	69093148
718	251	3994	-312	-977	-9082	-42	204	88	1121	55975	1121	69093148
710	248	3988	-308	-975	-9082	-39	209	97	1122	56069	1122	69093154
692	248	4004	-305	-984	-9081	-39	209	97	1123	56096	1123	69093155
686	265	4020	-312	-984	-9062	-39	209	97	1124	56125	1124	69093155
704	256	4002	-314	-986	-9063	-36	210	90	1125	56219	1125	69093161
720	260	3992	-312	-983	-9064	-36	210	90	1126	56246	1126	69093162
726	271	3984	-310	-974	-9083	-36	210	90	1127	56275	1127	69093169
720	255	3980	-309	-979	-9093	-36	218	96	1128	56369	1128	69093169
709	242	3973	-311	-976	-9088	-36	218	96	1129	56396	1129	69093169
729	243	3969	-315	-984	-9081	-36	218	96	1130	56425	1130	69093175
738	249	3993	-312	-984	-9103	-22	218	94	1131	56519	1131	69093175
744	247	3997	-310	-975	-9080	-22	218	94	1132	56546	1132	69093181
721	265	4018	-308	-980	-9096	-22	218	94	1133	56575	1133	69093182
713	248	4005	-311	-978	-9113	-26	218	96	1134	56669	1134	69093182
705	229	3997	-315	-974	-9113	-26	218	96	1135	56696	1135	69093188
721	256	3990	-310	-981	-9082	-26	218	96	1136	56725	1136	69093188
723	262	4000	-311	-972	-9038	-21	217	95	1137	56819	1137	69093194
711	270	3994	-314	-974	-9072	-21	217	95	1138	56846	1138	69093194
704	243	3974	-314	-974	-9057	-21	217	95	1139	56875	1139	69093200
721	256	3978	-312	-975	-9090	-25	223	95	1140	56969	1140	69093200
728	252	3975	-312	-983	-9096	-25	223	95	1141	56996	1141	69093200
708	258	4007	-310	-970	-9081	-25	223	95	1142	57025	1142	69093207
703	263	4015	-312	-974	-9077	-22	228	94	1143	57119	1143	69093207
711	276	3974	-310	-986	-9065	-22	228	94	1144	57146	1144	69093213
715	246	4000	-313	-976	-9085	-22	228	94	1145	57175	1145	69093214
720	251	3987	-311	-981	-9086	-17	223	95	1146	57269	1146	69093214
728	252	3977	-312	-983	-9097	-17	223	95	1147	57296	1147	69093220
700	265	3995	-311	-974	-9083	-17	223	95	1148	57325	1148	69093220
715	252	4013	-311	-975	-9064	-12	228	100	1149	57419	1149	69093229
707	241	4014	-311	-977	-9092	-12	228	100	1150	57446	1150	69093229
732	241	3996	-312	-987	-9097	-12	228	100	1151	57475	1151	69093233
751	252	3983	-312	-987	-9091	-6	230	100	1152	57569	1152	69093234
711	257	3985	-312	-976	-9110	-6	230	100	1153	57596	1153	69093234
690	243	3977	-316	-981	-9088	-6	230	100	1154	57625	1154	69093243
707	251	3981	-315	-981	-9066	0	232	100	1155	57719	1155	69093245
718	243	4002	-312	-977	-9087	0	232	100	1156	57746	1156	69093247
693	264	4000	-310	-976	-9099	0	232	100	1157	57775	1157	69093248
699	264	3999	-308	-972	-9082	1	231	101	1158	57869	1158	69093248
720	265	3997	-310	-976	-9098	1	231	101	1159	57896	1159	69093254
726	263	3989	-307	-980	-9080	1	231	101	1160	57925	1160	69093255
736	258	4024	-307	-971	-9062	7	233	105	1161	58019	1161	69093255
743	251	3990	-306	-975	-9076	7	233	105	1162	58046	1162	69093259
720	255	3961	-311	-983	-9065	7	233	105	1163	58075	1163	69093259
735	238	3989	-311	-986	-9084	9	229	99	1164	58169	1164	69093265
726	237	3973	-310	-987	-9126	9	229	99	1165	58196	1165	69093265
712	246	3983	-309	-977	-9087	9	229	99	1166	58225	1166	69093265
728	254	3973	-310	-979	-9116	14	234	102	1167	58319	1167	69093272
723	259	4004	-311	-977	-9076	14	234	102	1168	58346	1168	69093272
707	233	4008	-319	-977	-9063	14	234	102	1169	58375	1169	69093278
715	243	4014	-317	-981	-9055	16	236	100	1170	58469	1170	69093279
736	241	3991	-312	-976	-9063	16	236	100	1171	58496	1171	69093284
718	262	3995	-311	-980	-9082	16	236	100	1172	58519	1172	69093285
704	256	4002	-312	-984	-9100	19	231	107	1173	58617	1173	69093285
733	262	4017	-315	-980	-9102	19	231	107	1174	58646	1174	69093292
722	252	3983	-309	-978	-9086	19	231	107	1175	58655	1175	69093293
719	258	3962	-311	-975	-9065	19	231	107	1176	58683	1176	69093298
727	248	3963	-305	-977	-9084	30	234	100	1177	58777	1177	69093299
722	252	3968	-309	-980	-9067	30	234	100	1178	58804	1178	69093299
718	247	3978	-312	-978	-9081	30	234	100	1179	58833	1179	69093305
739	230	3988	-310	-980	-9103	34	238	100	1180	58927	1180	69093305
747	223	3970	-308	-982	-9090	34	238	100	1181	58954	1181	69093312
736	258	4001	-310	-974	-9061	34	238	100	1182	58983	1182	69093313
723	251	3993	-311	-983	-9101	36	232	106	1183	59077	1183	69093313
734	247	4008	-312	-977	-9089	36	232	106	1184	59104	1184	69093316
733	253	3977	-313	-982	-9101	36	232	106	1185	59133	1185	69093317
717	263	3966	-311	-980	-9101	38	232	106	1186	59227	1186	69093327
721	260	3959	-311	-978	-9087	38	232	106	1187	59254	1187	69093328
732	258	3991	-320	-983	-9068	38	232	106	1188	59283	1188	69093330
728	249	3993	-319	-981	-9074	38	234	108	1189	59377	1189	69093334
749	248	3996	-314	-975	-9086	38	234	108	1190	59404	1190	69093335
747	251	3998	-314	-976	-9048	38	234	108	1191	59433	1191	69093342
750	243	4025	-314	-976	-9050	44	230	100	1192	59527	1192	69093343
736	243	4051	-314	-977	-9075	44	230	100	1193	59554	1193	69093343
733	228	4018	-314	-983	-9081	44	230	100	1194	59583	1194	69093345
722	238	4033	-311	-979	-9098	57	231	109	1195	59677	1195	69093345
737	242	4015	-308	-979	-9092	57	231	109	1196	59704	1196	69093348
740	230	4009	-311	-973	-9102	57	231	109	1197	59733	1197	69093349
742	235	4011	-311	-975	-9109	58	230	108	1198	59827	1198	69093356
733	240	3989	-311	-982	-9084	58	230	108	1199	59854	1199	69093356
720	245	3991	-312	-973	-9071	58	230	108	1200	59883	1200	69093357
714	254	3981	-306	-980	-9065	56	228	108	1201	59977	1201	69093363
724	255	3966	-307	-982	-9093	56	228	108	1202	60004	1202	69093364
737	257	4000	-313	-977	-9114	56	228	108	1203	60033	1203	69093370
716	248	4018	-313	-979	-9089	65	231	107	1204	60127	1204	69093370
713	256	4027	-310	-980	-9090	65	231	107	1205	60154	1205	69093370
727	257	4015	-314	-978	-9087	65	231	107	1206	60183	1206	69093377
725	252	4009	-313	-977	-9064	74	228	104	1207	60276	1207	69093377
738	246	3981	-313	-978	-9092	74	228	104	1208	60303	1208	69093384
745	241	4001	-315	-983	-9107	74	228	104	1209	60332	1209	69093384
729	231	3987	-315	-981	-9093	70	220	112	1210	60426	1210	69093385
710	238	4002	-316	-973	-9095	70	220	112	1211	60453	1211	69093388
725	241	4001	-311	-984	-9080	70	220	112	1212	60482	1212	69093388
726	247	4001	-315	-982	-9049	77	227	107	1213	60576	1213	69093397
745	240	4000	-314	-977	-9057	77	227	107	1214	60603	1214	69093398
738	244	3995	-310	-981	-9096	77	227	107	1215	60632	1215	69093398
722	245	3995	-311	-971	-9113	76	214	114	1216	60726	1216	69093402
740	258	4004	-313	-974	-9117	76	214	114	1217	60753	1217	69093403
744	246	3997	-311	-982	-9105	76	214	114	1218	60782	1218	69093408
740	223	3993	-311	-978	-9114	83	227	105	1219	60876	1219	69093409
736	234	4002	-309	-978	-9090	83	227	105	1220	60903	1220	69093409
729	253	3981	-316	-974	-9106	83	227	105	1221	60932	1221	69093416
732	248	3986	-316	-977	-9121	86	214	116	1222	61026	1222	69093416
730	245	3988	-315	-980	-9123	86	214	116	1223	61053	1223	69093420
757	242	3977	-309	-970	-9076	86	214	116	1224	61082	1224	69093420
744	261	3982	-306	-982	-9061	96	216	114	1225	61176	1225	69093420
728	265	3990	-307	-981	-9079	96	216	114	1226	61203	1226	69093428
751	263	4012	-308	-984	-9100	96	216	114	1227	61232	1227	69093429
756	259	4008	-310	-980	-9113	87	209	111	1228	61326	1228	69093461
763	261	4022	-314	-977	-9097	87	209	111	1229	61353	1229	69093462
740	250	3983	-315	-980	-9069	87	209	111	1230	61382	1230	69093462
733	243	4015	-316	-980	-9059	100	204	118	1231	61476	1231	69093463
746	248	4001	-310	-978	-9073	100	204	118	1232	61503	1232	69093463
749	256	4022	-316	-983	-9089	100	204	118	1233	61532	1233	69093465
740	253	3992	-314	-980	-9085	102	210	114	1234	61626	1234	69093465
745	250	3983	-315	-974	-9089	102	210	114	1235	61653	1235	69093467
738	248	4037	-313	-980	-9096	102	210	114	1236	61681	1236	69093468
745	242	3999	-311	-981	-9078	103	203	119	1237	61775	1237	69093468
741	245	3980	-312	-982	-9062	103	203	119	1238	61802	1238	69093470
735	250	4004	-308	-976	-9080	103	203	119	1239	61831	1239	69093472
721	246	3987	-307	-972	-9098	110	200	108	1240	61925	1240	69093473
734	252	4010	-312	-980	-9082	110	200	108	1241	61952	1241	69093474
751	258	3981	-315	-976	-9116	110	200	108	1242	61981	1242	69093474
729	259	3998	-314	-976	-9107	112	196	116	1243	62075	1243	69093475
740	248	3996	-310	-981	-9090	112	196	116	1244	62102	1244	69093475
733	262	3992	-310	-972	-9087	112	196	116	1245	62131	1245	69093478
752	266	3981	-309	-976	-9095	117	191	119	1246	62225	1246	69093479
735	272	3966	-312	-984	-9078	117	191	119	1247	62252	1247	69093480
744	254	4015	-315	-972	-9072	117	191	119	1248	62275	1248	69093487
744	260	4005	-313	-976	-9086	121	189	121	1249	62369	1249	69093488
738	263	3977	-310	-973	-9091	121	189	121	1250	62401	1250	69093494
747	265	4000	-309	-981	-9084	121	189	121	1251	62430	1251	69093494
741	261	3999	-314	-984	-9090	125	183	123	1252	62524	1252	69093495
742	253	4006	-314	-977	-9097	125	183	123	1253	62551	1253	69093498
758	265	4016	-310	-977	-9097	125	183	123	1254	62580	1254	69093499
746	244	4003	-312	-978	-9096	117	179	129	1255	62674	1255	69093506
736	250	3985	-314	-971	-9096	117	179	129	1256	62701	1256	69093507
753	255	4001	-314	-979	-9062	117	179	129	1257	62729	1257	69093512
749	247	3988	-311	-975	-9067	130	174	128	1258	62823	1258	69093513
736	265	4001	-307	-974	-9076	130	174	128	1259	62850	1259	69093514
743	260	3998	-313	-974	-9101	130	174	128	1260	62879	1260	69093519
731	258	4001	-315	-971	-9079	128	170	132	1261	62973	1261	69093519
736	256	4013	-316	-975	-9066	128	170	132	1262	63000	1262	69093526
746	261	4008	-310	-975	-9095	128	170	132	1263	63029	1263	69093527
746	268	3989	-308	-971	-9087	139	165	125	1264	63117	1264	69093527
750	267	4001	-310	-977	-9088	139	165	125	1265	63150	1265	69093530
729	253	4000	-312	-973	-9093	139	165	125	1266	63179	1266	69093531
733	240	4005	-315	-981	-9088	131	159	145	1267	63273	1267	69093539
745	241	4021	-312	-985	-9100	131	159	145	1268	63300	1268	69093540
767	251	3973	-309	-973	-9112	131	159	145	1269	63329	1269	69093543
747	252	3986	-308	-973	-9095	133	153	137	1270	63423	1270	69093545
731	258	3972	-309	-976	-9106	133	153	137	1271	63450	1271	69093545
727	268	3959	-316	-981	-9107	133	153	137	1272	63479	1272	69093551
738	249	3982	-314	-983	-9115	130	154	138	1273	63573	1273	69093552
742	250	3989	-315	-981	-9099	130	154	138	1274	63600	1274	69093552
761	269	4005	-311	-978	-9068	130	154	138	1275	63629	1275	69093559
758	273	3993	-313	-980	-9081	134	150	142	1276	63723	1276	69093559
752	257	3994	-313	-975	-9115	134	150	142	1277	63750	1277	69093565
763	275	3996	-308	-979	-9107	134	150	142	1278	63779	1278	69093565
745	264	3995	-311	-980	-9097	127	147	145	1279	63873	1279	69093566
727	265	4004	-315	-978	-9110	127	147	145	1280	63900	1280	69093569
766	255	3990	-313	-973	-9081	127	147	145	1281	63929	1281	69093569
756	250	3988	-311	-969	-9057	137	139	151	1282	64023	1282	69093578
723	243	4000	-309	-973	-9063	137	139	151	1283	64050	1283	69093578
756	264	4005	-307	-976	-9084	137	139	151	1284	64079	1284	69093582
753	255	4006	-309	-979	-9084	123	129	153	1285	64173	1285	69093584
751	259	4007	-312	-984	-9107	123	129	153	1286	64200	1286	69093584
763	259	4018	-308	-978	-9099	123	129	153	1287	64229	1287	69093590
744	261	3999	-307	-973	-9058	131	125	157	1288	64323	1288	69093592
765	278	3978	-311	-973	-9067	131	125	157	1289	64349	1289	69093597
737	262	3999	-308	-979	-9089	131	125	157	1290	64378	1290	69093598
743	268	3996	-307	-983	-9088	116	126	144	1291	64472	1291	69093598
752	274	3991	-312	-983	-9091	116	126	144	1292	64499	1292	69093602
740	269	4005	-310	-977	-9099	116	126	144	1293	64528	1293	69093602
750	264	4015	-315	-981	-9122	121	119	153	1294	64622	1294	69093610
750	261	4003	-313	-977	-9076	121	119	153	1295	64649	1295	69093610
760	257	3964	-312	-982	-9097	121	119	153	1296	64678	1296	69093610
758	247	3987	-308	-977	-9093	109	113	147	1297	64772	1297	69093616
744	250	4006	-308	-972	-9076	109	113	147	1298	64799	1298	69093617
749	270	3994	-314	-977	-9046	109	113	147	1299	64828	1299	69093622
761	263	3997	-314	-978	-9071	109	115	153	1300	64922	1300	69093623
764	263	3980	-314	-977	-9067	109	115	153	1301	64949	1301	69093623
761	275	4012	-313	-981	-9065	109	115	153	1302	64978	1302	69093630
747	274	3992	-309	-968	-9079	99	105	149	1303	65072	1303	69093632
746	287	3990	-310	-969	-9100	99	105	149	1304	65099	1304	69093636
745	294	3970	-312	-977	-9077	99	105	149	1305	65128	1305	69093637
750	280	4013	-320	-977	-9084	102	110	162	1306	65222	1306	69093637
763	270	4022	-319	-983	-9069	102	110	162	1307	65249	1307	69093642
739	273	3989	-313	-974	-9075	102	110	162	1308	65278	1308	69093642
746	281	3985	-308	-978	-9097	96	98	144	1309	65372	1309	69093649
757	277	3965	-306	-981	-9103	96	98	144	1310	65398	1310	69093649
750	269	4008	-313	-979	-9095	96	98	144	1311	65427	1311	69093650
752	270	4000	-314	-978	-9112	95	107	151	1312	65521	1312	69093655
763	278	3975	-311	-979	-9088	95	107	151	1313	65548	1313	69093656
737	264	3993	-309	-976	-9065	95	107	151	1314	65577	1314	69093662
733	273	3974	-310	-976	-9108	90	92	136	1315	65671	1315	69093663
729	280	3976	-309	-974	-9097	90	92	136	1316	65698	1316	69093663
747	270	3994	-311	-979	-9084	90	92	136	1317	65726	1317	69093669
739	281	3999	-316	-982	-9096	88	96	158	1318	65820	1318	69093669
750	276	3988	-314	-977	-9062	88	96	158	1319	65847	1319	69093672
744	271	3998	-319	-983	-9104	88	96	158	1320	65875	1320	69093672
744	271	4004	-319	-985	-9109	84	88	136	1321	65969	1321	69093681
746	280	4006	-317	-981	-9109	84	88	136	1322	65996	1322	69093681
744	270	4014	-314	-981	-9078	84	88	136	1323	66025	1323	69093682
754	274	4006	-314	-980	-9091	78	94	146	1324	66119	1324	69093687
747	271	4018	-316	-981	-9086	78	94	146	1325	66146	1325	69093687
747	256	3988	-315	-978	-9096	78	94	146	1326	66175	1326	69093693
738	252	3980	-311	-972	-9053	74	82	134	1327	66269	1327	69093694
754	259	3961	-309	-971	-9062	74	82	134	1328	66296	1328	69093694
732	293	3974	-305	-971	-9080	74	82	134	1329	66325	1329	69093701
743	291	3972	-312	-972	-9064	82	92	142	1330	66419	1330	69093702
746	279	4008	-314	-983	-9062	82	92	142	1331	66445	1331	69093707
744	281	3966	-308	-979	-9050	82	92	142	1332	66474	1332	69093708
751	280	3976	-308	-975	-9057	66	76	130	1333	66568	1333	69093708
738	289	3978	-309	-973	-9087	66	76	130	1334	66595	1334	69093711
749	281	3984	-314	-974	-9096	66	76	130	1335	66624	1335	69093712
755	280	3976	-315	-985	-9095	70	82	134	1336	66718	1336	69093720
757	283	3998	-313	-988	-9084	70	82	134	1337	66745	1337	69093722
759	281	3977	-312	-977	-9071	70	82	134	1338	66773	1338	69093722
780	281	3974	-311	-979	-9060	65	67	129	1339	66867	1339	69093726
742	273	3990	-311	-974	-9075	65	67	129	1340	66894	1340	69093726
726	287	4007	-311	-970	-9096	65	67	129	1341	66923	1341	69093733
725	293	3999	-311	-974	-9062	68	72	130	1342	67017	1342	69093734
738	289	4001	-312	-974	-9080	68	72	130	1343	67044	1343	69093734
766	285	3998	-315	-981	-9048	68	72	130	1344	67073	1344	69093740
781	286	4018	-316	-981	-9053	64	68	126	1345	67167	1345	69093740
771	279	4021	-316	-978	-9076	64	68	126	1346	67194	1346	69093743
742	279	3981	-310	-978	-9088	64	68	126	1347	67222	1347	69093744
726	305	3977	-311	-977	-9081	66	68	124	1348	67316	1348	69093744
741	294	3977	-313	-976	-9088	66	68	124	1349	67343	1349	69093752
757	286	4007	-315	-981	-9085	66	68	124	1350	67372	1350	69093753
774	282	4003	-312	-974	-9087	56	70	122	1351	67466	1351	69093759
754	280	4003	-312	-977	-9066	56	70	122	1352	67492	1352	69093759
749	291	4008	-312	-974	-9062	56	70	122	1353	67521	1353	69093765
752	292	4010	-312	-974	-9091	53	65	113	1354	67615	1354	69093765
734	281	3992	-314	-980	-9112	53	65	113	1355	67642	1355	69093765
751	271	4004	-313	-977	-9058	53	65	113	1356	67671	1356	69093772
756	272	3977	-311	-973	-9060	50	70	118	1357	67765	1357	69093772
742	291	3975	-307	-974	-9082	50	70	118	1358	67792	1358	69093778
723	298	4001	-310	-972	-9055	50	70	118	1359	67820	1359	69093778
724	297	3995	-311	-979	-9102	53	57	111	1360	67914	1360	69093779
736	284	4000	-311	-980	-9112	53	57	111	1361	67941	1361	69093782
740	296	4017	-313	-984	-9081	53	57	111	1362	67970	1362	69093783
741	299	4002	-310	-981	-9106	46	66	120	1363	68064	1363	69093791
757	302	3973	-310	-976	-9088	46	66	120	1364	68091	1364	69093792
748	286	3979	-312	-983	-9088	46	66	120	1365	68120	1365	69093792
766	275	3999	-313	-983	-9093	49	51	113	1366	68214	1366	69093797
751	297	3976	-316	-977	-9063	49	51	113	1367	68241	1367	69093798
747	298	4017	-312	-986	-9080	49	51	113	1368	68270	1368	69093803
740	292	4008	-312	-981	-9097	45	63	111	1369	68364	1369	69093804
742	288	3996	-312	-979	-9093	45	63	111	1370	68391	1370	69093804
749	286	4011	-312	-979	-9029	45	63	111	1371	68420	1371	69093811
738	291	3997	-308	-973	-9072	43	53	111	1372	68514	1372	69093811
728	299	3985	-308	-971	-9060	43	53	111	1373	68541	1373	69093817
740	294	3972	-310	-983	-9121	43	53	111	1374	68570	1374	69093817
744	289	3981	-311	-986	-9082	34	54	106	1375	68664	1375	69093817
753	281	3991	-312	-988	-9051	34	54	106	1376	68691	1376	69093823
754	291	3984	-312	-973	-9081	34	54	106	1377	68720	1377	69093824
742	277	3991	-311	-972	-9089	36	56	98	1378	68814	1378	69093830
737	286	3994	-311	-978	-9087	36	56	98	1379	68841	1379	69093831
746	288	4005	-316	-977	-9073	36	56	98	1380	68869	1380	69093836
727	282	3996	-315	-982	-9096	31	55	107	1381	68963	1381	69093836
730	307	4014	-310	-987	-9106	31	55	107	1382	68990	1382	69093836
753	289	3976	-313	-981	-9087	31	55	107	1383	69019	1383	69093844
744	281	4000	-315	-986	-9075	28	54	100	1384	69113	1384	69093844
732	278	3969	-310	-980	-9078	28	54	100	1385	69140	1385	69093852
743	294	3976	-308	-981	-9121	28	54	100	1386	69169	1386	69093853
736	304	3991	-308	-978	-9117	28	50	100	1387	69263	1387	69093853
728	297	3982	-309	-970	-9129	28	50	100	1388	69290	1388	69093854
730	286	3951	-311	-980	-9095	28	50	100	1389	69319	1389	69093854
733	272	3975	-312	-976	-9071	22	54	96	1390	69413	1390	69093863
735	290	3988	-306	-977	-9115	22	54	96	1391	69440	1391	69093863
745	297	3998	-306	-979	-9092	22	54	96	1392	69469	1392	69093864
728	298	3969	-311	-978	-9084	27	55	97	1393	69563	1393	69093869
711	285	3960	-314	-979	-9106	27	55	97	1394	69590	1394	69093870
744	298	3957	-314	-983	-9081	27	55	97	1395	69619	1395	69093875
732	298	3983	-312	-979	-9060	18	52	88	1396	69713	1396	69093875
719	296	3991	-313	-983	-9075	18	52	88	1397	69740	1397	69093876
730	292	3991	-313	-975	-9097	18	52	88	1398	69769	1398	69093883
743	291	3993	-314	-970	-9081	19	49	91	1399	69863	1399	69093883
741	289	3987	-317	-979	-9109	19	49	91	1400	69890	1400	69093889
732	296	3985	-312	-977	-9094	19	49	91	1401	69919	1401	69093889
737	298	4012	-313	-976	-9064	12	54	88	1402	70013	1402	69093889
740	301	3990	-314	-977	-9065	12	54	88	1403	70040	1403	69093895
735	305	3972	-315	-979	-9101	12	54	88	1404	70069	1404	69093895
734	302	3954	-316	-983	-9081	11	49	87	1405	70163	1405	69093901
738	294	3956	-314	-982	-9079	11	49	87	1406	70190	1406	69093901
730	305	3985	-314	-977	-9117	11	49	87	1407	70219	1407	69093902
726	312	3995	-314	-982	-9057	9	53	87	1408	70313	1408	69093907
724	294	3981	-316	-977	-9053	9	53	87	1409	70340	1409	69093908
717	288	3995	-314	-979	-9080	9	53	87	1410	70369	1410	69093915
733	291	3979	-313	-980	-9103	11	51	75	1411	70463	1411	69093915
754	299	3987	-314	-978	-9111	11	51	75	1412	70490	1412	69093922
725	292	3956	-314	-978	-9095	11	51	75	1413	70519	1413	69093922
734	288	3974	-315	-982	-9082	5	59	85	1414	70613	1414	69093923
732	283	3981	-314	-976	-9071	5	59	85	1415	70640	1415	69093925
706	291	3993	-308	-975	-9087	5	59	85	1416	70669	1416	69093925
731	280	3981	-307	-973	-9108	8	48	80	1417	70763	1417	69093933
716	278	3997	-308	-977	-9097	8	48	80	1418	70790	1418	69093934
738	282	4017	-309	-980	-9105	8	48	80	1419	70819	1419	69093934
733	294	3986	-308	-982	-9088	-2	56	82	1420	70913	1420	69093940
727	298	3980	-308	-983	-9064	-2	56	82	1421	70940	1421	69093940
726	298	3977	-310	-976	-9073	-2	56	82	1422	70969	1422	69093947
723	293	4003	-314	-980	-9056	4	54	78	1423	71063	1423	69093948
719	290	3985	-315	-984	-9087	4	54	78	1424	71090	1424	69093948
743	284	3982	-314	-979	-9094	4	54	78	1425	71119	1425	69093954
744	289	3960	-310	-983	-9085	-1	51	77	1426	71213	1426	69093954
736	287	3961	-309	-979	-9073	-1	51	77	1427	71240	1427	69093960
723	281	3999	-312	-973	-9057	-1	51	77	1428	71269	1428	69093960
736	285	4010	-311	-977	-9099	-3	49	77	1429	71363	1429	69093960
726	275	4009	-309	-972	-9102	-3	49	77	1430	71390	1430	69093966
733	295	4006	-308	-974	-9069	-3	49	77	1431	71419	1431	69093967
729	307	4018	-309	-982	-9107	-3	57	77	1432	71513	1432	69093972
723	306	3999	-307	-979	-9095	-3	57	77	1433	71540	1433	69093973
727	303	3990	-315	-984	-9059	-3	57	77	1434	71569	1434	69093974
730	307	3973	-310	-981	-9063	-4	52	76	1435	71663	1435	69093979
716	302	3989	-308	-975	-9081	-4	52	76	1436	71690	1436	69093980
699	290	3980	-313	-986	-9100	-4	52	76	1437	71719	1437	69093986
698	300	3980	-312	-983	-9111	-2	60	74	1438	71813	1438	69093987
723	290	3972	-313	-985	-9086	-2	60	74	1439	71840	1439	69093988
734	287	3976	-313	-980	-9083	-2	60	74	1440	71869	1440	69093993
722	289	3985	-310	-975	-9109	-7	61	77	1441	71963	1441	69093994
709	285	3984	-309	-979	-9091	-7	61	77	1442	71990	1442	69093996
720	287	3990	-313	-975	-9102	-7	61	77	1443	72019	1443	69093997
721	270	3985	-311	-977	-9077	-8	56	74	1444	72113	1444	69094005
723	286	3987	-311	-983	-9088	-8	56	74	1445	72140	1445	69094005
734	293	3984	-308	-974	-9086	-8	56	74	1446	72169	1446	69094006
704	306	3986	-314	-975	-9075	-15	65	73	1447	72263	1447	69094011
708	298	4000	-315	-980	-9076	-15	65	73	1448	72290	1448	69094012
720	286	3989	-312	-978	-9115	-15	65	73	1449	72319	1449	69094018
715	284	3975	-312	-984	-9132	-15	61	77	1450	72413	1450	69094019
731	287	3969	-310	-984	-9089	-15	61	77	1451	72440	1451	69094019
695	277	3980	-313	-979	-9081	-15	61	77	1452	72469	1452	69094025
709	276	4007	-316	-984	-9077	-14	60	76	1453	72563	1453	69094026
727	295	3983	-316	-978	-9089	-14	60	76	1454	72590	1454	69094032
735	285	3998	-310	-978	-9093	-14	60	76	1455	72619	1455	69094033
731	278	4004	-311	-977	-9091	-15	55	81	1456	72713	1456	69094034
710	269	4002	-310	-977	-9093	-15	55	81	1457	72740	1457	69094037
703	290	3989	-315	-984	-9082	-15	55	81	1458	72769	1458	69094038
716	285	3969	-314	-978	-9077	-24	68	78	1459	72863	1459	69094044
719	282	3968	-312	-974	-9086	-24	68	78	1460	72890	1460	69094045
726	305	3998	-309	-976	-9094	-24	68	78	1461	72919	1461	69094045
705	290	3979	-312	-970	-9084	-27	65	71	1462	73013	1462	69094050
723	290	3978	-311	-976	-9083	-27	65	71	1463	73040	1463	69094051
720	294	3988	-312	-981	-9087	-27	65	71	1464	73069	1464	69094057
720	293	4000	-312	-971	-9088	-27	67	77	1465	73163	1465	69094059
733	295	4005	-311	-982	-9076	-27	67	77	1466	73190	1466	69094064
722	279	4001	-314	-978	-9104	-27	67	77	1467	73219	1467	69094065
720	291	3987	-317	-984	-9087	-26	64	76	1468	73313	1468	69094066
715	285	3992	-316	-987	-9096	-26	64	76	1469	73340	1469	69094068
737	286	4008	-311	-979	-9068	-26	64	76	1470	73369	1470	69094069
707	288	3998	-309	-980	-9060	-36	70	76	1471	73463	1471	69094073
698	276	3987	-313	-975	-9077	-36	70	76	1472	73490	1472	69094100
712	284	3986	-320	-978	-9113	-36	70	76	1473	73519	1473	69094101
721	275	3975	-317	-983	-9106	-37	69	73	1474	73613	1474	69094102
703	284	3980	-315	-977	-9104	-37	69	73	1475	73640	1475	69094102
720	300	3971	-309	-976	-9087	-37	69	73	1476	73669	1476	69094105
720	310	3989	-310	-977	-9052	-37	75	73	1477	73763	1477	69094105
716	294	3998	-312	-978	-9057	-37	75	73	1478	73790	1478	69094105
715	289	3988	-313	-982	-9066	-37	75	73	1479	73819	1479	69094107
722	298	3979	-312	-975	-9115	-38	70	78	1480	73913	1480	69094108
724	293	3983	-313	-971	-9120	-38	70	78	1481	73940	1481	69094110
716	262	3991	-312	-977	-9077	-38	70	78	1482	73969	1482	69094110
715	267	3994	-312	-975	-9093	-41	75	71	1483	74063	1483	69094110
713	280	3990	-313	-976	-9079	-41	75	71	1484	74090	1484	69094112
725	280	3982	-309	-978	-9082	-41	75	71	1485	74119	1485	69094112
705	272	3981	-310	-977	-9102	-48	76	74	1486	74213	1486	69094114
687	259	4019	-317	-985	-9085	-48	76	74	1487	74240	1487	69094115
720	274	3995	-314	-979	-9065	-48	76	74	1488	74269	1488	69094115
729	283	3995	-311	-977	-9095	-50	80	72	1489	74363	1489	69094122
713	281	3971	-310	-976	-9079	-50	80	72	1490	74390	1490	69094122
716	290	3959	-314	-972	-9073	-50	80	72	1491	74419	1491	69094129
726	299	3997	-318	-979	-9088	-53	81	75	1492	74513	1492	69094129
722	292	3996	-318	-983	-9073	-53	81	75	1493	74540	1493	69094130
718	289	3980	-314	-976	-9110	-53	81	75	1494	74569	1494	69094135
706	291	3955	-309	-976	-9095	-48	84	76	1495	74663	1495	69094135
690	289	3967	-311	-977	-9079	-48	84	76	1496	74690	1496	69094141
709	270	3991	-317	-976	-9057	-48	84	76	1497	74719	1497	69094141
709	265	3989	-314	-980	-9081	-53	85	75	1498	74813	1498	69094142
703	269	3985	-313	-981	-9080	-53	85	75	1499	74840	1499	69094147
715	296	4001	-311	-980	-9100	-53	85	75	1500	74869	1500	69094148
716	312	3998	-307	-979	-9078	-60	88	78	1501	74963	1501	69094154
721	307	4006	-313	-974	-9061	-60	88	78	1502	74990	1502	69094154
729	276	3996	-312	-980	-9071	-60	88	78	1503	75019	1503	69094161
717	275	3974	-310	-976	-9086	-60	92	74	1504	75112	1504	69094161
722	277	3966	-309	-972	-9062	-60	92	74	1505	75139	1505	69094162
722	284	3990	-318	-981	-9087	-60	92	74	1506	75168	1506	69094167
723	280	3983	-316	-978	-9102	-57	95	77	1507	75262	1507	69094168
714	288	3996	-316	-983	-9120	-57	95	77	1508	75289	1508	69094174
706	290	3983	-310	-970	-9082	-57	95	77	1509	75318	1509	69094174
706	285	3982	-312	-975	-9081	-54	94	76	1510	75412	1510	69094175
711	282	3984	-318	-979	-9087	-54	94	76	1511	75439	1511	69094180
702	287	3996	-317	-980	-9092	-54	94	76	1512	75468	1512	69094182
719	278	3988	-315	-983	-9067	-63	99	75	1513	75562	1513	69094186
721	273	3987	-310	-982	-9098	-63	99	75	1514	75589	1514	69094187
694	296	3996	-308	-972	-9058	-63	99	75	1515	75618	1515	69094187
704	295	4024	-314	-976	-9069	-61	103	77	1516	75712	1516	69094193
703	289	3999	-314	-980	-9096	-61	103	77	1517	75739	1517	69094193
707	278	3976	-314	-971	-9109	-61	103	77	1518	75768	1518	69094200
716	279	4005	-311	-977	-9067	-67	103	75	1519	75862	1519	69094202
719	290	3968	-310	-976	-9112	-67	103	75	1520	75889	1520	69094203
704	276	3997	-312	-981	-9105	-67	103	75	1521	75918	1521	69094206
710	278	4000	-310	-977	-9054	-69	113	77	1522	76012	1522	69094207
705	278	4000	-314	-974	-9087	-69	113	77	1523	76039	1523	69094212
713	285	3986	-311	-984	-9087	-69	113	77	1524	76068	1524	69094213
714	288	3981	-313	-983	-9086	-65	111	83	1525	76161	1525	69094213
713	284	3996	-317	-979	-9107	-65	111	83	1526	76188	1526	69094219
696	276	4004	-315	-981	-9086	-65	111	83	1527	76217	1527	69094219
703	278	3989	-314	-973	-9058	-65	115	71	1528	76311	1528	69094225
713	278	4001	-313	-980	-9082	-65	115	71	1529	76338	1529	69094225
721	283	3976	-312	-980	-9099	-65	115	71	1530	76367	1530	69094225
724	266	3995	-313	-977	-9083	-68	116	76	1531	76461	1531	69094232
721	263	4015	-315	-973	-9085	-68	116	76	1532	76488	1532	69094233
700	275	3974	-311	-975	-9073	-68	116	76	1533	76517	1533	69094238
715	281	3983	-305	-975	-9073	-69	121	77	1534	76611	1534	69094239
702	294	3995	-310	-981	-9086	-69	121	77	1535	76638	1535	69094245
702	278	3997	-321	-975	-9046	-69	121	77	1536	76666	1536	69094245
722	272	4000	-321	-979	-9081	-69	125	79	1537	76760	1537	69094247
725	264	4004	-305	-968	-9101	-69	125	79	1538	76787	1538	69094251
717	272	3978	-304	-970	-9071	-69	125	79	1539	76816	1539	69094252
721	287	3975	-309	-978	-9060	-71	127	81	1540	76904	1540	69094257
704	274	3972	-310	-978	-9064	-71	127	81	1541	76937	1541	69094258
724	268	4005	-313	-983	-9067	-71	127	81	1542	76966	1542	69094258
706	263	3991	-314	-987	-9092	-69	131	77	1543	77060	1543	69094263
693	258	3985	-311	-981	-9084	-69	131	77	1544	77087	1544	69094264
687	276	4000	-314	-982	-9074	-69	131	77	1545	77116	1545	69094271
700	276	4008	-313	-979	-9085	-71	137	83	1546	77210	1546	69094271
708	267	3999	-312	-974	-9074	-71	137	83	1547	77237	1547	69094271
692	290	4004	-308	-978	-9076	-71	137	83	1548	77266	1548	69094277
699	291	3999	-310	-971	-9070	-76	134	76	1549	77360	1549	69094277
697	283	4001	-313	-973	-9076	-76	134	76	1550	77387	1550	69094283
687	281	3980	-311	-982	-9115	-76	134	76	1551	77415	1551	69094283
697	289	3990	-314	-976	-9117	-70	142	78	1552	77509	1552	69094284
707	284	4008	-313	-978	-9066	-70	142	78	1553	77536	1553	69094289
699	273	3960	-314	-976	-9058	-70	142	78	1554	77565	1554	69094290
687	275	3980	-318	-982	-9087	-71	149	89	1555	77659	1555	69094296
700	277	3980	-317	-993	-9082	-71	149	89	1556	77686	1556	69094296
709	257	3980	-314	-980	-9080	-71	149	89	1557	77715	1557	69094296
699	263	3994	-312	-980	-9101	-76	154	86	1558	77809	1558	69094302
713	267	3986	-311	-978	-9055	-76	154	86	1559	77836	1559	69094302
701	252	3985	-315	-974	-9068	-76	154	86	1560	77865	1560	69094310
688	266	3999	-314	-977	-9076	-67	151	85	1561	77959	1561	69094310
714	260	4018	-312	-977	-9069	-67	151	85	1562	77986	1562	69094316
719	264	3989	-311	-982	-9093	-67	151	85	1563	78015	1563	69094316
713	271	3993	-312	-984	-9111	-72	148	88	1564	78109	1564	69094317
698	276	3987	-312	-978	-9072	-72	148	88	1565	78135	1565	69094323
709	263	3995	-313	-980	-9066	-72	148	88	1566	78164	1566	69094323
707	261	3987	-317	-987	-9061	-67	161	83	1567	78258	1567	69094329
707	264	3994	-311	-981	-9072	-67	161	83	1568	78285	1568	69094329
696	265	3991	-312	-979	-9076	-67	161	83	1569	78314	1569	69094329
698	258	3999	-315	-973	-9090	-68	158	90	1570	78408	1570	69094334
693	264	4006	-316	-975	-9101	-68	158	90	1571	78435	1571	69094335
690	253	4003	-310	-978	-9082	-68	158	90	1572	78463	1572	69094342
686	265	3998	-309	-973	-9076	-72	172	82	1573	78557	1573	69094343
703	257	3989	-308	-974	-9095	-72	172	82	1574	78584	1574	69094343
705	264	3980	-316	-983	-9106	-72	172	82	1575	78613	1575	69094348
700	262	4001	-316	-979	-9101	-61	173	85	1576	78707	1576	69094349
711	254	3996	-313	-982	-9097	-61	173	85	1577	78734	1577	69094354
696	274	4006	-311	-973	-9081	-61	173	85	1578	78763	1578	69094355
715	267	3984	-315	-976	-9060	-61	179	81	1579	78857	1579	69094355
712	264	3997	-316	-981	-9075	-61	179	81	1580	78884	1580	69094361
704	258	3995	-313	-980	-9119	-61	179	81	1581	78913	1581	69094361
696	258	4008	-311	-978	-9097	-61	179	85	1582	79007	1582	69094367
692	261	3988	-309	-980	-9106	-61	179	85	1583	79034	1583	69094368
715	272	3998	-309	-972	-9066	-61	179	85	1584	79063	1584	69094368
710	260	4006	-308	-981	-9051	-60	178	90	1585	79151	1585	69094373
686	249	4006	-312	-978	-9082	-60	178	90	1586	79184	1586	69094375
708	253	3986	-313	-980	-9100	-60	178	90	1587	79213	1587	69094381
710	255	3970	-307	-980	-9077	-57	185	85	1588	79307	1588	69094382
717	270	3959	-308	-977	-9091	-57	185	85	1589	79334	1589	69094387
700	255	4005	-312	-977	-9074	-57	185	85	1590	79363	1590	69094388
708	257	3998	-312	-978	-9062	-61	187	87	1591	79457	1591	69094389
709	256	3982	-310	-972	-9087	-61	187	87	1592	79484	1592	69094393
675	268	3975	-310	-977	-9083	-61	187	87	1593	79513	1593	69094395
687	272	4002	-308	-977	-9103	-57	191	91	1594	79607	1594	69094403
724	279	3992	-314	-987	-9073	-57	191	91	1595	79634	1595	69094405
714	275	3978	-312	-977	-9093	-57	191	91	1596	79663	1596	69094406
695	267	3993	-309	-971	-9075	-61	197	93	1597	79757	1597	69094407
699	265	4021	-311	-974	-9064	-61	197	93	1598	79784	1598	69094408
699	274	4009	-312	-981	-9072	-61	197	93	1599	79813	1599	69094414
728	267	4000	-315	-976	-9062	-56	204	90	1600	79907	1600	69094414
716	251	4001	-317	-982	-9080	-56	204	90	1601	79934	1601	69094415
682	259	3969	-313	-972	-9068	-56	204	90	1602	79963	1602	69094422
689	256	3994	-312	-976	-9069	-42	204	96	1603	80057	1603	69094423
702	253	3979	-310	-983	-9070	-42	204	96	1604	80084	1604	69094426
714	246	4008	-319	-980	-9062	-42	204	96	1605	80113	1605	69094427
717	259	3988	-316	-980	-9078	-43	207	95	1606	80207	1606	69094427
706	255	3980	-312	-983	-9085	-43	207	95	1607	80234	1607	69094432
723	260	4012	-314	-980	-9075	-43	207	95	1608	80263	1608	69094433
712	257	4001	-314	-979	-9091	-41	207	95	1609	80357	1609	69094438
714	262	4009	-315	-981	-9063	-41	207	95	1610	80384	1610	69094439
708	250	3981	-308	-982	-9084	-41	207	95	1611	80413	1611	69094439
706	265	3980	-309	-982	-9081	-41	211	97	1612	80507	1612	69094445
725	264	3969	-312	-976	-9070	-41	211	97	1613	80534	1613	69094445
693	255	3979	-311	-978	-9085	-41	211	97	1614	80562	1614	69094452
711	246	3991	-314	-971	-9075	-40	212	92	1615	80656	1615	69094453
698	250	3974	-317	-974	-9075	-40	212	92	1616	80683	1616	69094453
707	246	3995	-311	-983	-9070	-40	212	92	1617	80712	1617	69094459
712	232	3999	-308	-978	-9078	-29	213	95	1618	80806	1618	69094460
706	229	4013	-311	-982	-9069	-29	213	95	1619	80833	1619	69094465
729	258	4012	-312	-983	-9056	-29	213	95	1620	80861	1620	69094466
715	266	3997	-308	-978	-9049	-36	218	90	1621	80955	1621	69094472
711	248	3983	-308	-976	-9039	-36	218	90	1622	80982	1622	69094472
683	269	3973	-311	-973	-9055	-36	218	90	1623	81011	1623	69094473
704	258	3993	-313	-976	-9073	-29	223	87	1624	81105	1624	69094477
721	258	4001	-316	-983	-9084	-29	223	87	1625	81132	1625	69094478
731	257	3998	-311	-976	-9095	-29	223	87	1626	81161	1626	69094485
720	246	3996	-311	-977	-9086	-23	225	95	1627	81255	1627	69094485
708	246	3999	-312	-976	-9066	-23	225	95	1628	81282	1628	69094485
698	246	4024	-312	-972	-9074	-23	225	95	1629	81311	1629	69094491
692	250	4005	-314	-981	-9054	-15	223	95	1630	81405	1630	69094491
705	239	3957	-312	-974	-9066	-15	223	95	1631	81432	1631	69094497
722	245	3981	-311	-976	-9073	-15	223	95	1632	81461	1632	69094497
733	245	3984	-312	-983	-9077	-16	220	98	1633	81555	1633	69094498
740	248	3996	-313	-980	-9073	-16	220	98	1634	81582	1634	69094503
712	245	4005	-314	-984	-9079	-16	220	98	1635	81610	1635	69094504
713	270	3980	-313	-977	-9063	-15	227	99	1636	81704	1636	69094510
726	263	3972	-313	-974	-9103	-15	227	99	1637	81731	1637	69094510
720	267	3983	-315	-982	-9101	-15	227	99	1638	81759	1638	69094510
713	247	4003	-319	-983	-9068	-14	226	98	1639	81853	1639	69094516
726	260	4009	-319	-977	-9087	-14	226	98	1640	81880	1640	69094517
722	271	3976	-310	-974	-9062	-14	226	98	1641	81908	1641	69094524
709	262	3956	-308	-976	-9061	-3	229	97	1642	82002	1642	69094525
702	253	3991	-312	-980	-9084	-3	229	97	1643	82029	1643	69094525
721	245	3989	-313	-988	-9109	-3	229	97	1644	82058	1644	69094531
709	251	3995	-313	-982	-9085	2	230	100	1645	82152	1645	69094532
708	249	4024	-311	-981	-9102	2	230	100	1646	82179	1646	69094536
717	230	3999	-314	-971	-9093	2	230	100	1647	82208	1647	69094537
709	245	4003	-315	-972	-9067	-2	232	98	1648	82302	1648	69094537
716	244	3996	-319	-979	-9061	-2	232	98	1649	82328	1649	69094542
729	252	3976	-311	-980	-9115	-2	232	98	1650	82357	1650	69094543
740	261	3973	-312	-984	-9122	4	232	98	1651	82451	1651	69094548
729	264	3970	-313	-978	-9109	4	232	98	1652	82478	1652	69094549
713	261	3991	-315	-974	-9086	4	232	98	1653	82507	1653	69094556
731	242	3989	-313	-981	-9069	10	230	98	1654	82601	1654	69094556
738	240	3967	-315	-977	-9092	10	230	98	1655	82628	1655	69094556
733	243	3992	-311	-980	-9076	10	230	98	1656	82657	1656	69094562
719	252	3976	-310	-977	-9099	15	233	101	1657	82751	1657	69094563
734	261	3971	-313	-975	-9109	15	233	101	1658	82778	1658	69094568
710	242	4002	-315	-984	-9090	15	233	101	1659	82807	1659	69094569
723	224	3998	-310	-979	-9085	15	231	99	1660	82901	1660	69094569
737	237	3997	-309	-972	-9063	15	231	99	1661	82927	1661	69094575
702	239	3994	-308	-983	-9077	15	231	99	1662	82956	1662	69094575
712	242	4007	-308	-978	-9092	19	233	105	1663	83050	1663	69094581
726	249	4021	-309	-982	-9082	19	233	105	1664	83077	1664	69094582
731	250	3996	-313	-979	-9063	19	233	105	1665	83105	1665	69094582
731	247	4008	-314	-974	-9068	22	238	98	1666	83199	1666	69094587
712	249	4005	-310	-977	-9072	22	238	98	1667	83226	1667	69094588
726	269	3988	-316	-981	-9067	22	238	98	1668	83255	1668	69094595
733	264	3999	-313	-983	-9078	29	233	107	1669	83349	1669	69094595
728	245	4021	-311	-982	-9090	29	233	107	1670	83376	1670	69094596
722	242	4008	-310	-974	-9075	29	233	107	1671	83405	1671	69094601
728	254	4007	-310	-971	-9082	35	235	105	1672	83499	1672	69094602
730	250	4000	-314	-978	-9046	35	235	105	1673	83526	1673	69094607
720	238	3960	-312	-981	-9075	35	235	105	1674	83555	1674	69094608
715	229	3988	-311	-986	-9082	39	237	103	1675	83648	1675	69094608
730	245	3998	-309	-977	-9064	39	237	103	1676	83675	1676	69094613
732	254	3999	-314	-979	-9090	39	237	103	1677	83704	1677	69094614
737	255	4007	-313	-980	-9101	41	233	105	1678	83798	1678	69094620
725	263	3993	-312	-975	-9046	41	233	105	1679	83825	1679	69094620
736	244	3977	-310	-984	-9056	41	233	105	1680	83854	1680	69094620
729	262	3980	-312	-982	-9099	47	235	105	1681	83948	1681	69094627
730	269	3995	-313	-974	-9078	47	235	105	1682	83975	1682	69094628
733	278	4007	-313	-981	-9093	47	235	105	1683	84003	1683	69094634
735	262	4006	-314	-982	-9088	51	229	109	1684	84097	1684	69094634
752	254	4000	-314	-980	-9073	51	229	109	1685	84124	1685	69094640
740	248	3991	-311	-975	-9084	51	229	109	1686	84153	1686	69094640
745	234	4006	-313	-975	-9084	55	229	105	1687	84247	1687	69094641
730	229	4022	-314	-979	-9067	55	229	105	1688	84274	1688	69094646
729	233	4001	-313	-980	-9089	55	229	105	1689	84302	1689	69094647
736	240	4014	-317	-977	-9077	58	230	112	1690	84396	1690	69094653
720	247	3992	-315	-981	-9087	58	230	112	1691	84423	1691	69094654
738	237	4019	-315	-972	-9109	58	230	112	1692	84452	1692	69094654
731	251	4001	-317	-983	-9090	65	225	105	1693	84546	1693	69094659
704	256	3993	-315	-980	-9078	65	225	105	1694	84573	1694	69094664
722	251	3999	-310	-972	-9106	65	225	105	1695	84602	1695	69094666
740	240	3976	-308	-979	-9101	63	227	111	1696	84695	1696	69094667
760	252	4000	-310	-978	-9102	63	227	111	1697	84722	1697	69094667
729	240	3979	-311	-985	-9116	63	227	111	1698	84751	1698	69094672
736	239	3982	-315	-982	-9092	71	223	107	1699	84845	1699	69094673
726	250	3984	-310	-977	-9089	71	223	107	1700	84872	1700	69094680
733	265	3995	-309	-978	-9070	71	223	107	1701	84901	1701	69094680
738	250	3996	-314	-981	-9089	76	224	110	1702	84995	1702	69094681
744	228	3997	-314	-976	-9105	76	224	110	1703	85022	1703	69094683
742	241	3990	-314	-982	-9046	76	224	110	1704	85051	1704	69094684
753	241	3950	-310	-977	-9045	82	222	108	1705	85145	1705	69094691
733	248	3961	-307	-976	-9070	82	222	108	1706	85172	1706	69094691
747	258	3994	-309	-980	-9110	82	222	108	1707	85201	1707	69094691
742	256	3980	-310	-980	-9085	83	225	107	1708	85295	1708	69094698
730	257	4005	-311	-981	-9088	83	225	107	1709	85322	1709	69094699
745	250	4007	-307	-976	-9094	83	225	107	1710	85351	1710	69094705
734	263	4005	-311	-973	-9073	88	214	112	1711	85445	1711	69094705
739	263	4010	-314	-980	-9059	88	214	112	1712	85472	1712	69094706
757	256	4011	-309	-981	-9111	88	214	112	1713	85501	1713	69094714
762	248	3992	-312	-978	-9086	91	217	113	1714	85595	1714	69094715
749	259	3995	-312	-980	-9104	91	217	113	1715	85622	1715	69094742
731	248	3975	-317	-971	-9076	91	217	113	1716	85651	1716	69094746
740	237	3994	-314	-983	-9059	93	211	111	1717	85745	1717	69094747
725	247	4011	-311	-984	-9074	93	211	111	1718	85772	1718	69094748
739	247	4011	-314	-976	-9078	93	211	111	1719	85801	1719	69094748
739	262	3979	-308	-976	-9083	97	213	109	1720	85895	1720	69094749
742	258	4008	-305	-972	-9114	97	213	109	1721	85922	1721	69094749
740	261	4008	-309	-976	-9103	97	213	109	1722	85951	1722	69094750
744	261	3993	-310	-979	-9093	94	208	116	1723	86045	1723	69094750
740	246	3984	-314	-974	-9112	94	208	116	1724	86072	1724	69094751
743	260	3974	-309	-987	-9078	94	208	116	1725	86100	1725	69094751
739	264	3985	-307	-983	-9091	101	205	117	1726	86194	1726	69094752
742	268	3983	-312	-979	-9106	101	205	117	1727	86221	1727	69094752
723	261	4008	-315	-979	-9100	101	205	117	1728	86250	1728	69094753
737	253	3998	-314	-975	-9088	107	203	119	1729	86344	1729	69094753
739	250	4029	-312	-977	-9077	107	203	119	1730	86371	1730	69094756
744	249	4017	-309	-979	-9054	107	203	119	1731	86400	1731	69094756
729	246	3990	-309	-979	-9091	116	196	118	1732	86494	1732	69094762
738	251	3989	-313	-982	-9090	116	196	118	1733	86521	1733	69094762
732	245	3988	-312	-975	-9089	116	196	118	1734	86550	1734	69094763
740	246	3976	-306	-976	-9094	112	192	124	1735	86644	1735	69094770
728	248	3995	-309	-980	-9093	112	192	124	1736	86671	1736	69094770
742	266	3973	-312	-978	-9084	112	192	124	1737	86700	1737	69094776
747	261	3984	-311	-978	-9088	125	187	125	1738	86794	1738	69094776
750	259	4002	-307	-979	-9076	125	187	125	1739	86821	1739	69094776
728	251	3992	-309	-974	-9092	125	187	125	1740	86850	1740	69094782
739	275	3977	-318	-975	-9092	122	184	130	1741	86944	1741	69094783
748	271	3991	-318	-978	-9085	122	184	130	1742	86971	1742	69094788
748	262	3997	-313	-974	-9082	122	184	130	1743	86999	1743	69094789
754	268	3995	-312	-975	-9098	133	185	123	1744	87093	1744	69094789
755	261	3995	-313	-972	-9090	133	185	123	1745	87120	1745	69094795
759	246	4023	-311	-981	-9114	133	185	123	1746	87149	1746	69094796
748	244	3993	-313	-978	-9113	124	176	134	1747	87243	1747	69094802
744	254	3997	-314	-977	-9084	124	176	134	1748	87270	1748	69094802
737	247	3967	-310	-981	-9092	124	176	134	1749	87299	1749	69094808
732	249	3965	-312	-974	-9083	128	174	126	1750	87393	1750	69094809
726	256	3969	-313	-976	-9083	128	174	126	1751	87420	1751	69094809
754	252	3984	-310	-984	-9124	128	174	126	1752	87448	1752	69094815
735	256	3989	-308	-978	-9108	132	174	136	1753	87542	1753	69094815
751	265	3999	-309	-980	-9060	132	174	136	1754	87569	1754	69094822
739	273	4001	-308	-978	-9085	132	174	136	1755	87598	1755	69094822
749	271	4001	-312	-978	-9082	136	160	134	1756	87692	1756	69094823
746	276	3979	-314	-983	-9097	136	160	134	1757	87719	1757	69094826
752	270	4013	-310	-973	-9129	136	160	134	1758	87748	1758	69094826
745	270	3988	-310	-976	-9115	126	164	134	1759	87842	1759	69094833
751	258	3993	-314	-977	-9101	126	164	134	1760	87869	1760	69094834
751	261	3999	-312	-974	-9095	126	164	134	1761	87898	1761	69094834
746	255	4015	-315	-982	-9069	134	154	136	1762	87992	1762	69094841
763	251	4021	-320	-984	-9078	134	154	136	1763	88019	1763	69094841
746	260	3991	-308	-979	-9087	134	154	136	1764	88047	1764	69094847
751	270	3989	-305	-982	-9065	127	149	139	1765	88141	1765	69094848
747	282	3975	-309	-977	-9108	127	149	139	1766	88168	1766	69094848
742	259	3984	-317	-980	-9106	127	149	139	1767	88197	1767	69094855
742	253	3990	-312	-978	-9087	137	141	149	1768	88291	1768	69094855
754	261	3989	-311	-978	-9083	137	141	149	1769	88318	1769	69094862
772	279	4014	-308	-981	-9098	137	141	149	1770	88347	1770	69094864
751	275	4011	-309	-978	-9081	127	141	149	1771	88441	1771	69094865
745	270	3991	-315	-976	-9112	127	141	149	1772	88468	1772	69094865
741	265	4010	-312	-985	-9095	127	141	149	1773	88496	1773	69094866
740	262	3989	-312	-977	-9052	131	141	151	1774	88590	1774	69094873
742	267	3969	-312	-977	-9061	131	141	151	1775	88617	1775	69094874
747	254	3998	-307	-979	-9089	131	141	151	1776	88640	1776	69094879
752	260	4001	-308	-973	-9085	127	131	149	1777	88734	1777	69094880
739	264	4000	-312	-980	-9089	127	131	149	1778	88766	1778	69094881
740	263	3997	-312	-972	-9064	127	131	149	1779	88795	1779	69094886
743	266	3992	-311	-974	-9069	124	130	158	1780	88889	1780	69094887
742	267	3995	-311	-978	-9077	124	130	158	1781	88916	1781	69094893
755	265	3998	-313	-974	-9063	124	130	158	1782	88945	1782	69094894
747	261	4015	-308	-976	-9078	124	118	142	1783	89039	1783	69094894
731	279	4004	-309	-977	-9072	124	118	142	1784	89066	1784	69094897
750	285	4006	-316	-978	-9099	124	118	142	1785	89095	1785	69094898
757	275	3996	-320	-982	-9118	113	121	161	1786	89189	1786	69094904
754	260	3992	-316	-985	-9068	113	121	161	1787	89216	1787	69094905
753	260	4006	-317	-982	-9095	113	121	161	1788	89244	1788	69094905
732	273	3991	-314	-979	-9098	112	114	142	1789	89338	1789	69094912
730	282	3979	-312	-975	-9079	112	114	142	1790	89365	1790	69094913
748	287	3983	-319	-987	-9075	112	114	142	1791	89394	1791	69094918
741	271	3967	-315	-988	-9089	101	113	161	1792	89488	1792	69094919
737	264	3983	-311	-982	-9055	101	113	161	1793	89515	1793	69094919
733	274	4002	-308	-981	-9054	101	113	161	1794	89544	1794	69094925
739	287	4000	-309	-975	-9070	99	103	149	1795	89638	1795	69094925
761	276	4020	-308	-973	-9062	99	103	149	1796	89665	1796	69094932
731	272	3993	-314	-978	-9071	99	103	149	1797	89694	1797	69094932
745	272	3999	-313	-972	-9109	101	109	157	1798	89782	1798	69094933
759	283	3992	-313	-977	-9068	101	109	157	1799	89798	1799	69094938
754	291	3987	-313	-977	-9068	101	109	157	1800	89827	1800	69094939
762	274	4002	-311	-978	-9071	95	101	143	1801	89936	1801	69094946
745	270	3983	-310	-978	-9109	95	101	143	1802	89965	1802	69094947
756	276	3962	-312	-978	-9094	95	101	143	1803	89974	1803	69094952
744	276	3996	-311	-982	-9061	95	101	143	1804	90003	1804	69094952
755	260	3985	-312	-979	-9083	89	101	155	1805	90097	1805	69094953
749	265	3984	-315	-975	-9107	89	101	155	1806	90124	1806	69094956
754	257	3995	-309	-977	-9083	89	101	155	1807	90152	1807	69094956
758	273	3986	-312	-975	-9095	86	90	134	1808	90246	1808	69094965
718	276	4002	-310	-981	-9074	86	90	134	1809	90273	1809	69094965
756	274	3981	-318	-981	-9086	86	90	134	1810	90301	1810	69094965
761	284	3982	-315	-979	-9102	82	94	148	1811	90395	1811	69094971
764	263	3980	-309	-979	-9083	82	94	148	1812	90422	1812	69094971
740	294	3986	-313	-973	-9083	82	94	148	1813	90451	1813	69094979
740	297	3975	-311	-979	-9079	77	81	131	1814	90545	1814	69094979
747	278	3982	-312	-985	-9094	77	81	131	1815	90572	1815	69094979
756	265	3977	-318	-976	-9090	77	81	131	1816	90601	1816	69094985
763	264	3989	-317	-981	-9081	75	89	145	1817	90695	1817	69094985
762	276	4004	-312	-981	-9082	75	89	145	1818	90722	1818	69094991
751	269	3985	-308	-977	-9074	75	89	145	1819	90751	1819	69094992
770	266	3993	-312	-978	-9065	79	83	131	1820	90845	1820	69094992
770	259	4005	-309	-973	-9104	79	83	131	1821	90872	1821	69094997
739	270	3995	-313	-977	-9108	79	83	131	1822	90901	1822	69094998
724	276	3972	-309	-979	-9079	75	83	139	1823	90995	1823	69095004
736	277	3982	-308	-974	-9052	75	83	139	1824	91022	1824	69095004
735	277	4006	-312	-979	-9063	75	83	139	1825	91051	1825	69095005
725	285	3970	-311	-975	-9063	71	75	131	1826	91145	1826	69095011
742	281	3976	-308	-975	-9096	71	75	131	1827	91172	1827	69095012
753	296	4002	-309	-980	-9085	71	75	131	1828	91201	1828	69095017
739	293	3993	-315	-975	-9055	72	78	128	1829	91295	1829	69095017
734	293	3988	-317	-978	-9082	72	78	128	1830	91322	1830	69095018
751	267	3989	-318	-982	-9074	72	78	128	1831	91351	1831	69095023
742	266	4005	-319	-978	-9065	66	72	122	1832	91445	1832	69095024
759	285	4013	-314	-980	-9111	66	72	122	1833	91472	1833	69095031
734	276	3991	-312	-977	-9082	66	72	122	1834	91501	1834	69095031
743	282	3993	-312	-978	-9046	59	75	127	1835	91595	1835	69095036
750	273	3997	-313	-980	-9054	59	75	127	1836	91622	1836	69095037
752	279	3992	-310	-975	-9035	59	75	127	1837	91650	1837	69095037
742	290	3967	-310	-977	-9043	56	60	126	1838	91744	1838	69095043
754	298	3956	-312	-977	-9094	56	60	126	1839	91771	1839	69095044
737	291	3989	-310	-974	-9087	56	60	126	1840	91800	1840	69095054
746	293	4001	-313	-977	-9115	61	71	113	1841	91894	1841	69095055
724	289	3981	-312	-979	-9091	61	71	113	1842	91921	1842	69095056
757	303	3999	-310	-973	-9089	61	71	113	1843	91950	1843	69095058
759	298	3996	-314	-978	-9085	55	67	123	1844	92044	1844	69095059
739	289	3986	-316	-978	-9079	55	67	123	1845	92071	1845	69095065
745	285	3999	-314	-978	-9118	55	67	123	1846	92100	1846	69095066
741	279	3989	-311	-976	-9092	56	68	120	1847	92194	1847	69095066
728	271	3991	-309	-971	-9065	56	68	120	1848	92221	1848	69095069
733	275	4001	-313	-980	-9069	56	68	120	1849	92250	1849	69095069
738	291	4011	-310	-975	-9071	51	57	117	1850	92344	1850	69095075
754	304	3995	-309	-976	-9056	51	57	117	1851	92371	1851	69095076
749	299	3966	-306	-977	-9075	51	57	117	1852	92400	1852	69095077
743	281	3975	-305	-971	-9088	49	59	107	1853	92494	1853	69095082
738	286	3993	-311	-984	-9103	49	59	107	1854	92521	1854	69095083
740	293	3992	-313	-978	-9059	49	59	107	1855	92549	1855	69095089
721	278	4002	-313	-977	-9072	45	63	119	1856	92643	1856	69095089
734	285	3982	-313	-984	-9044	45	63	119	1857	92670	1857	69095089
734	287	3980	-315	-982	-9077	45	63	119	1858	92698	1858	69095095
732	279	3967	-318	-980	-9096	43	61	107	1859	92792	1859	69095095
736	288	3982	-315	-981	-9066	43	61	107	1860	92819	1860	69095101
739	282	4007	-312	-973	-9043	43	61	107	1861	92848	1861	69095102
742	288	3981	-311	-980	-9054	40	60	114	1862	92942	1862	69095102
745	294	3990	-309	-982	-9066	40	60	114	1863	92969	1863	69095107
733	269	4005	-312	-974	-9085	40	60	114	1864	92998	1864	69095108
747	272	4026	-310	-981	-9093	35	55	105	1865	93092	1865	69095114
738	271	4006	-309	-974	-9099	35	55	105	1866	93119	1866	69095114
738	266	4000	-305	-978	-9067	35	55	105	1867	93148	1867	69095121
740	280	3986	-308	-980	-9081	29	57	105	1868	93242	1868	69095122
747	283	3974	-307	-975	-9076	29	57	105	1869	93269	1869	69095122
739	299	3982	-309	-978	-9077	29	57	105	1870	93298	1870	69095128
727	298	3985	-309	-980	-9100	31	57	105	1871	93392	1871	69095128
730	301	3979	-311	-974	-9105	31	57	105	1872	93419	1872	69095134
730	301	4013	-316	-983	-9094	31	57	105	1873	93448	1873	69095134
747	285	3997	-315	-980	-9076	32	56	104	1874	93542	1874	69095135
734	282	3999	-316	-980	-9059	32	56	104	1875	93569	1875	69095140
752	293	3994	-315	-976	-9063	32	56	104	1876	93598	1876	69095142
746	277	3992	-311	-972	-9106	22	50	102	1877	93692	1877	69095146
742	275	3967	-307	-975	-9114	22	50	102	1878	93719	1878	69095147
739	283	3976	-315	-980	-9123	22	50	102	1879	93748	1879	69095147
757	289	3984	-316	-982	-9068	26	56	100	1880	93842	1880	69095153
764	301	3971	-311	-983	-9071	26	56	100	1881	93869	1881	69095153
719	290	4001	-309	-973	-9111	26	56	100	1882	93898	1882	69095160
723	298	3994	-310	-981	-9082	21	59	93	1883	93992	1883	69095160
719	305	3980	-309	-985	-9103	21	59	93	1884	94018	1884	69095161
742	285	3977	-310	-979	-9112	21	59	93	1885	94047	1885	69095166
731	294	3966	-307	-987	-9082	21	53	95	1886	94141	1886	69095167
733	292	3990	-314	-983	-9064	21	53	95	1887	94168	1887	69095172
736	318	3972	-314	-977	-9078	21	53	95	1888	94197	1888	69095173
734	308	3973	-311	-978	-9078	12	52	90	1889	94291	1889	69095173
729	303	3983	-312	-975	-9073	12	52	90	1890	94318	1890	69095179
726	281	4009	-309	-974	-9120	12	52	90	1891	94347	1891	69095179
723	287	4022	-309	-976	-9118	18	50	90	1892	94441	1892	69095185
730	299	3999	-314	-978	-9103	18	50	90	1893	94468	1893	69095185
