Accl X	Accl Y	Accl Z	Gyro X	Gyro Y	Gyro Z	Mag X	Mag Y	Mag Z	RPkt#	Rtime	LPkt#	Ltime
777	252	3932	-324	-1000	-9071	63	75	133	0	0	0	68905169
771	245	3865	-305	-981	-9107	63	75	133	1	29	1	68905175
743	272	3894	-296	-963	-9109	53	67	119	2	123	2	68905178
710	309	3924	-295	-964	-9086	53	67	119	3	128	3	68905179
688	329	3984	-307	-977	-9070	53	67	119	4	246	4	68905179
712	308	4022	-314	-992	-9099	53	67	119	5	364	5	68905179
752	287	4022	-317	-996	-9086	57	67	123	6	458	6	68905186
766	280	4034	-319	-991	-9103	57	67	123	7	468	7	68905187
770	278	4038	-308	-981	-9069	57	67	123	8	586	8	68905187
744	291	4039	-299	-962	-9103	57	67	123	9	704	9	68905191
709	310	4030	-300	-965	-9053	54	66	110	10	798	10	68905191
710	316	3984	-305	-974	-9062	54	66	110	11	808	11	68905198
743	306	3969	-312	-986	-9094	54	66	110	12	926	12	68905198
791	283	3916	-315	-999	-9092	54	66	110	13	1043	13	68905198
784	272	3900	-318	-998	-9097	45	69	121	14	1137	14	68905204
772	267	3917	-315	-976	-9079	45	69	121	15	1268	15	68905204
755	271	3965	-310	-959	-9112	45	69	121	16	1271	16	68905208
667	289	4021	-303	-954	-9069	41	55	111	17	1276	17	68905208
674	320	4046	-307	-966	-9079	41	55	111	18	1286	18	68905217
692	312	4052	-315	-983	-9091	41	55	111	19	1290	19	68905217
760	275	4015	-319	-993	-9048	49	65	115	20	1295	20	68905217
786	263	3955	-320	-990	-9074	49	65	115	21	1306	21	68905223
759	248	3933	-316	-984	-9086	49	65	115	22	1309	22	68905223
733	267	3923	-298	-966	-9077	40	56	108	23	1314	23	68905229
733	288	3923	-298	-972	-9079	40	56	108	24	1324	24	68905229
729	297	3953	-305	-982	-9064	40	56	108	25	1328	25	68905230
741	283	3960	-310	-988	-9054	44	60	114	26	1333	26	68905237
757	299	4007	-309	-984	-9083	44	60	114	27	1344	27	68905237
758	294	4040	-303	-979	-9103	44	60	114	28	1347	28	68905243
708	297	4034	-307	-971	-9059	36	52	106	29	1352	29	68905244
706	297	4037	-309	-980	-9090	36	52	106	30	1363	30	68905245
702	303	4003	-310	-981	-9047	36	52	106	31	1366	31	68905247
766	294	3988	-308	-999	-9060	32	64	110	32	1371	32	68905247
773	296	3956	-310	-992	-9114	32	64	110	33	1382	33	68905255
777	286	3946	-311	-978	-9073	32	64	110	34	1385	34	68905256
730	270	3964	-307	-973	-9074	31	53	101	35	1390	35	68905256
717	291	3976	-306	-968	-9080	31	53	101	36	1401	36	68905262
711	287	4010	-307	-967	-9049	31	53	101	37	1404	37	68905262
688	296	4023	-308	-979	-9077	27	53	105	38	1409	38	68905268
723	298	4021	-308	-979	-9087	27	53	105	39	1420	39	68905268
729	288	4009	-315	-980	-9101	27	53	105	40	1423	40	68905269
751	285	3976	-312	-980	-9086	25	57	99	41	1429	41	68905275
752	293	3963	-312	-976	-9080	25	57	99	42	1439	42	68905276
728	302	3941	-310	-976	-9071	25	57	99	43	1443	43	68905279
728	311	3943	-310	-979	-9089	17	55	95	44	1448	44	68905279
747	303	3947	-311	-985	-9086	17	55	95	45	1459	45	68905280
755	286	3993	-311	-994	-9082	17	55	95	46	1462	46	68905288
741	290	4002	-308	-980	-9078	25	55	93	47	1467	47	68905288
728	287	4034	-305	-983	-9087	25	55	93	48	1478	48	68905294
729	293	4011	-302	-977	-9058	25	55	93	49	1481	49	68905294
720	283	3974	-305	-982	-9052	21	53	95	50	1486	50	68905300
746	287	3982	-307	-989	-9090	21	53	95	51	1497	51	68905301
757	290	3960	-311	-989	-9101	21	53	95	52	1500	52	68905301
733	274	3947	-306	-979	-9082	16	52	88	53	1505	53	68905308
739	292	3949	-300	-971	-9079	16	52	88	54	1510	54	68905308
731	290	3966	-307	-977	-9076	16	52	88	55	1633	55	68905314
728	292	3990	-307	-977	-9076	22	60	92	56	1633	56	68905314
704	292	3990	-309	-978	-9086	22	60	92	57	1665	57	68905315
712	289	3996	-313	-980	-9083	22	60	92	58	1693	58	68905322
714	285	3982	-312	-982	-9092	14	54	86	59	1787	59	68905323
723	296	3990	-313	-976	-9075	14	54	86	60	1814	60	68905328
722	283	3956	-311	-979	-9040	14	54	86	61	1843	61	68905328
736	285	3950	-311	-986	-9063	10	50	88	62	1937	62	68905329
742	278	3941	-312	-982	-9065	10	50	88	63	1964	63	68905333
743	290	3974	-313	-984	-9064	10	50	88	64	1993	64	68905334
742	287	3983	-313	-974	-9098	5	53	87	65	2087	65	68905339
736	275	4001	-312	-977	-9056	5	53	87	66	2115	66	68905342
703	286	4034	-308	-975	-9065	5	53	87	67	2143	67	68905342
712	290	4035	-307	-974	-9096	3	51	79	68	2237	68	68905347
705	290	4012	-312	-978	-9081	3	51	79	69	2264	69	68905347
729	288	3949	-311	-982	-9099	3	51	79	70	2293	70	68905353
729	284	3945	-307	-982	-9122	3	59	77	71	2387	71	68905353
736	284	3949	-305	-986	-9114	3	59	77	72	2414	72	68905359
746	293	3941	-307	-975	-9060	3	59	77	73	2443	73	68905359
727	300	3916	-309	-979	-9067	10	48	80	74	2537	74	68905360
722	294	3935	-310	-983	-9052	10	48	80	75	2564	75	68905365
731	290	4004	-303	-975	-9067	10	48	80	76	2593	76	68905366
712	306	4031	-302	-977	-9099	1	59	79	77	2687	77	68905371
732	321	4023	-307	-980	-9111	1	59	79	78	2714	78	68905372
728	294	3992	-310	-975	-9076	1	59	79	79	2743	79	68905372
723	282	3967	-309	-978	-9088	0	46	76	80	2837	80	68905379
720	293	3965	-309	-979	-9075	0	46	76	81	2864	81	68905379
718	285	3972	-306	-978	-9081	0	46	76	82	2893	82	68905387
715	293	3969	-307	-981	-9095	-3	53	75	83	2987	83	68905388
726	308	3967	-308	-975	-9096	-3	53	75	84	3014	84	68905389
731	305	3986	-311	-981	-9077	-3	53	75	85	3043	85	68905394
722	292	3989	-312	-975	-9059	2	56	74	86	3137	86	68905395
720	276	3988	-314	-972	-9057	2	56	74	87	3164	87	68905403
717	281	3978	-307	-987	-9079	2	56	74	88	3193	88	68905404
721	284	3975	-305	-979	-9079	0	54	80	89	3287	89	68905405
738	290	3967	-307	-981	-9107	0	54	80	90	3314	90	68905405
753	297	3953	-307	-986	-9097	0	54	80	91	3343	91	68905405
741	302	3945	-308	-984	-9086	-4	48	74	92	3437	92	68905412
715	307	3968	-308	-981	-9062	-4	48	74	93	3464	93	68905412
722	290	3992	-307	-981	-9089	-4	48	74	94	3493	94	68905412
728	303	3997	-308	-987	-9103	-10	56	74	95	3587	95	68905418
728	295	3988	-306	-987	-9100	-10	56	74	96	3614	96	68905418
716	308	3995	-306	-972	-9108	-10	56	74	97	3643	97	68905424
726	309	4006	-305	-979	-9092	-12	62	76	98	3737	98	68905424
710	296	3998	-307	-980	-9064	-12	62	76	99	3764	99	68905424
718	286	3982	-311	-982	-9094	-12	62	76	100	3793	100	68905431
718	282	3963	-311	-982	-9086	-9	55	75	101	3887	101	68905431
714	296	3976	-305	-975	-9105	-9	55	75	102	3914	102	68905435
703	288	3975	-312	-977	-9106	-9	55	75	103	3943	103	68905435
721	290	3982	-313	-982	-9093	-19	57	81	104	4037	104	68905443
733	290	3996	-311	-978	-9071	-19	57	81	105	4064	105	68905443
727	287	4007	-313	-987	-9070	-19	57	81	106	4093	106	68905445
725	293	3999	-316	-983	-9069	-22	60	72	107	4187	107	68905453
715	297	3996	-313	-978	-9094	-22	60	72	108	4215	108	68905454
719	278	3982	-313	-988	-9104	-22	60	72	109	4243	109	68905457
722	278	3962	-313	-983	-9086	-24	62	76	110	4337	110	68905457
710	292	3978	-308	-983	-9067	-24	62	76	111	4364	111	68905457
715	300	3979	-309	-980	-9091	-24	62	76	112	4393	112	68905463
718	302	3976	-313	-977	-9060	-24	68	74	113	4487	113	68905463
726	300	3985	-308	-983	-9071	-24	68	74	114	4514	114	68905471
733	305	3984	-309	-983	-9114	-24	68	74	115	4543	115	68905471
713	300	3977	-311	-980	-9112	-27	63	75	116	4637	116	68905472
705	301	3975	-307	-983	-9099	-27	63	75	117	4664	117	68905474
722	299	3973	-310	-977	-9082	-27	63	75	118	4693	118	68905474
712	286	3974	-314	-981	-9050	-25	61	77	119	4787	119	68905482
715	278	3969	-312	-985	-9087	-25	61	77	120	4814	120	68905482
706	284	3958	-306	-974	-9092	-25	61	77	121	4843	121	68905482
700	291	3975	-311	-973	-9136	-28	64	76	122	4931	122	68905489
714	297	3978	-315	-982	-9077	-28	64	76	123	4964	123	68905490
717	279	3978	-312	-985	-9073	-28	64	76	124	4993	124	68905495
714	273	4001	-309	-982	-9075	-35	65	73	125	5087	125	68905496
729	281	3995	-307	-978	-9089	-35	65	73	126	5115	126	68905496
686	317	3978	-304	-978	-9087	-35	65	73	127	5143	127	68905502
694	313	3974	-310	-977	-9086	-34	68	74	128	5237	128	68905502
701	300	3964	-314	-977	-9088	-34	68	74	129	5265	129	68905508
714	278	3960	-310	-984	-9078	-34	68	74	130	5293	130	68905509
708	285	3952	-309	-981	-9089	-34	72	82	131	5387	131	68905509
715	301	3947	-308	-980	-9055	-34	72	82	132	5414	132	68905514
705	287	3987	-309	-989	-9067	-34	72	82	133	5443	133	68905515
708	288	3997	-311	-983	-9088	-38	70	78	134	5537	134	68905521
701	284	4006	-310	-978	-9100	-38	70	78	135	5564	135	68905522
708	294	4007	-307	-977	-9052	-38	70	78	136	5593	136	68905528
723	307	4002	-307	-979	-9080	-46	76	78	137	5687	137	68905528
703	292	4005	-312	-988	-9055	-46	76	78	138	5714	138	68905529
729	285	3964	-310	-983	-9054	-46	76	78	139	5743	139	68905534
716	286	3967	-308	-973	-9077	-42	78	72	140	5837	140	68905535
699	298	3999	-305	-977	-9079	-42	78	72	141	5864	141	68905541
706	305	3979	-302	-969	-9070	-42	78	72	142	5893	142	68905542
705	297	3967	-308	-981	-9083	-42	74	74	143	5987	143	68905542
702	286	3959	-312	-982	-9076	-42	74	74	144	6014	144	68905547
716	275	3978	-314	-973	-9091	-42	74	74	145	6043	145	68905547
734	288	3986	-311	-973	-9102	-53	81	79	146	6137	146	68905553
706	293	3983	-309	-973	-9106	-53	81	79	147	6164	147	68905553
708	281	4006	-314	-980	-9061	-53	81	79	148	6193	148	68905554
705	283	3998	-314	-983	-9042	-53	83	75	149	6287	149	68905560
700	284	3989	-314	-981	-9032	-53	83	75	150	6315	150	68905561
708	280	3973	-311	-986	-9096	-53	83	75	151	6344	151	68905566
689	282	3958	-309	-983	-9098	-56	84	82	152	6438	152	68905567
703	275	3965	-312	-973	-9076	-56	84	82	153	6466	153	68905567
712	272	4000	-307	-985	-9103	-56	84	82	154	6495	154	68905573
704	280	3999	-305	-981	-9090	-55	89	75	155	6583	155	68905573
703	285	3998	-304	-986	-9087	-55	89	75	156	6617	156	68905579
702	290	4003	-308	-981	-9096	-55	89	75	157	6645	157	68905582
708	285	3993	-310	-978	-9081	-55	87	81	158	6739	158	68905583
715	277	3974	-307	-980	-9121	-55	87	81	159	6767	159	68905585
706	274	3966	-306	-977	-9131	-55	87	81	160	6795	160	68905586
690	293	3968	-302	-975	-9088	-59	87	75	161	6889	161	68905593
681	287	3964	-307	-978	-9109	-59	87	75	162	6916	162	68905594
703	265	4002	-313	-982	-9078	-59	87	75	163	6945	163	68905599
695	267	4004	-314	-985	-9061	-64	96	74	164	7039	164	68905602
690	270	3980	-311	-984	-9068	-64	96	74	165	7066	165	68905602
686	290	3981	-308	-969	-9083	-64	96	74	166	7095	166	68905605
692	289	3987	-313	-976	-9065	-62	96	78	167	7189	167	68905605
706	276	3994	-310	-979	-9084	-62	96	78	168	7217	168	68905611
708	269	3977	-310	-975	-9080	-62	96	78	169	7245	169	68905612
700	275	3978	-311	-976	-9090	-63	99	81	170	7339	170	68905612
696	268	3973	-310	-974	-9106	-63	99	81	171	7366	171	68905617
695	286	3971	-307	-978	-9088	-63	99	81	172	7395	172	68905618
689	290	3970	-309	-987	-9083	-60	100	80	173	7489	173	68905624
699	279	3944	-310	-981	-9080	-60	100	80	174	7516	174	68905624
699	278	3984	-306	-984	-9051	-60	100	80	175	7545	175	68905624
708	289	3971	-305	-983	-9071	-67	103	75	176	7639	176	68905630
702	290	3954	-306	-978	-9080	-67	103	75	177	7666	177	68905630
707	284	3982	-306	-989	-9117	-67	103	75	178	7695	178	68905637
705	276	3980	-304	-983	-9080	-71	107	77	179	7789	179	68905638
687	278	4005	-303	-983	-9078	-71	107	77	180	7816	180	68905638
690	271	4002	-307	-981	-9075	-71	107	77	181	7845	181	68905644
695	276	4014	-310	-978	-9057	-68	110	76	182	7939	182	68905644
689	269	4003	-309	-986	-9066	-68	110	76	183	7966	183	68905650
701	265	4022	-306	-974	-9097	-68	110	76	184	7995	184	68905651
698	285	4017	-309	-978	-9084	-71	117	77	185	8089	185	68905651
697	297	4007	-308	-983	-9080	-71	117	77	186	8116	186	68905657
667	299	3987	-309	-982	-9090	-71	117	77	187	8145	187	68905657
675	270	3977	-312	-982	-9072	-67	115	83	188	8239	188	68905663
701	266	3976	-310	-979	-9063	-67	115	83	189	8266	189	68905663
695	283	3953	-308	-976	-9092	-67	115	83	190	8295	190	68905664
690	270	3944	-307	-979	-9094	-72	122	76	191	8389	191	68905672
702	266	3960	-312	-974	-9084	-72	122	76	192	8416	192	68905672
687	267	3974	-312	-978	-9091	-72	122	76	193	8445	193	68905676
705	254	3983	-313	-989	-9077	-69	131	77	194	8539	194	68905677
707	259	4000	-311	-980	-9078	-69	131	77	195	8566	195	68905677
699	272	3948	-308	-981	-9079	-69	131	77	196	8595	196	68905683
688	274	3970	-309	-983	-9099	-66	124	76	197	8683	197	68905683
699	278	3987	-306	-983	-9074	-66	124	76	198	8716	198	68905689
696	273	3998	-306	-989	-9057	-66	124	76	199	8745	199	68905690
702	285	3971	-308	-980	-9052	-66	130	84	200	8839	200	68905695
685	286	3959	-309	-980	-9037	-66	130	84	201	8866	201	68905696
715	276	3970	-302	-984	-9107	-66	130	84	202	8895	202	68905696
698	259	3996	-301	-983	-9118	-76	134	82	203	8989	203	68905702
699	258	4007	-304	-981	-9088	-76	134	82	204	9016	204	68905703
691	268	3987	-307	-983	-9064	-76	134	82	205	9045	205	68905709
692	287	3977	-308	-980	-9066	-70	140	78	206	9139	206	68905710
709	303	3974	-308	-981	-9057	-70	140	78	207	9166	207	68905710
696	270	3968	-312	-973	-9058	-70	140	78	208	9195	208	68905717
691	270	3985	-309	-973	-9069	-78	146	82	209	9289	209	68905717
686	269	3975	-308	-976	-9047	-78	146	82	210	9316	210	68905721
694	272	3966	-308	-976	-9065	-78	146	82	211	9345	211	68905722
704	277	3978	-311	-979	-9075	-77	141	83	212	9433	212	68905722
710	273	3957	-317	-972	-9063	-77	141	83	213	9466	213	68905728
683	250	3998	-312	-976	-9092	-77	141	83	214	9495	214	68905728
696	275	3984	-307	-981	-9107	-75	153	85	215	9589	215	68905734
706	270	3981	-308	-977	-9114	-75	153	85	216	9616	216	68905735
716	259	3980	-315	-981	-9087	-75	153	85	217	9645	217	68905735
697	259	3977	-313	-986	-9077	-73	161	87	218	9739	218	68905742
693	253	3980	-308	-986	-9060	-73	161	87	219	9766	219	68905742
691	255	3980	-309	-982	-9069	-73	161	87	220	9795	220	68905748
688	258	3985	-309	-981	-9079	-72	160	84	221	9889	221	68905748
710	269	3970	-307	-979	-9085	-72	160	84	222	9916	222	68905754
710	239	3973	-309	-979	-9095	-72	160	84	223	9945	223	68905754
698	250	3976	-302	-975	-9089	-72	164	84	224	10039	224	68905754
685	263	3988	-302	-975	-9082	-72	164	84	225	10066	225	68905760
696	266	3988	-308	-979	-9069	-72	164	84	226	10095	226	68905760
695	250	3970	-310	-975	-9085	-67	169	89	227	10189	227	68905789
693	256	3984	-310	-983	-9107	-67	169	89	228	10217	228	68905792
683	261	3989	-305	-977	-9109	-67	169	89	229	10245	229	68905793
680	256	3988	-306	-978	-9092	-70	174	84	230	10339	230	68905794
693	271	3989	-306	-979	-9106	-70	174	84	231	10367	231	68905797
696	247	3948	-311	-976	-9071	-70	174	84	232	10395	232	68905798
690	258	3977	-314	-978	-9076	-68	182	80	233	10489	233	68905798
686	261	3978	-311	-980	-9080	-68	182	80	234	10516	234	68905803
706	257	3966	-312	-976	-9116	-68	182	80	235	10545	235	68905803
692	260	3969	-311	-979	-9108	-66	182	82	236	10639	236	68905803
685	258	3985	-311	-978	-9122	-66	182	82	237	10666	237	68905804
703	258	3990	-311	-983	-9084	-66	182	82	238	10695	238	68905804
685	248	3975	-306	-983	-9066	-60	178	84	239	10789	239	68905804
693	239	3996	-310	-979	-9094	-60	178	84	240	10816	240	68905805
702	258	3976	-310	-978	-9116	-60	178	84	241	10845	241	68905805
691	251	3983	-311	-980	-9088	-61	185	91	242	10939	242	68905806
685	259	3984	-309	-979	-9076	-61	185	91	243	10966	243	68905807
708	264	3988	-300	-979	-9068	-61	185	91	244	10995	244	68905807
704	261	3972	-303	-974	-9076	-56	188	88	245	11089	245	68905812
700	264	3974	-305	-970	-9072	-56	188	88	246	11116	246	68905812
702	249	3968	-310	-985	-9070	-56	188	88	247	11145	247	68905819
707	256	3981	-308	-977	-9095	-62	200	88	248	11239	248	68905819
701	282	3993	-307	-977	-9104	-62	200	88	249	11267	249	68905819
709	271	3994	-305	-975	-9083	-62	200	88	250	11296	250	68905825
704	264	3998	-308	-973	-9094	-53	193	87	251	11389	251	68905826
705	262	3973	-310	-980	-9091	-53	193	87	252	11417	252	68905829
721	267	3994	-301	-973	-9097	-53	193	87	253	11445	253	68905829
704	263	3982	-305	-975	-9105	-54	204	88	254	11539	254	68905839
693	276	3973	-305	-982	-9089	-54	204	88	255	11567	255	68905839
698	252	3969	-311	-978	-9051	-54	204	88	256	11595	256	68905840
712	250	3978	-308	-982	-9059	-49	201	91	257	11689	257	68905843
713	259	3967	-309	-982	-9059	-49	201	91	258	11716	258	68905843
702	274	4001	-311	-975	-9065	-49	201	91	259	11745	259	68905852
693	264	3985	-310	-978	-9107	-49	201	91	260	11839	260	68905852
699	256	3999	-313	-977	-9116	-49	201	91	261	11866	261	68905853
705	262	3978	-310	-979	-9081	-49	201	91	262	11895	262	68905858
722	251	3983	-308	-981	-9083	-40	210	96	263	11989	263	68905858
714	251	3992	-309	-979	-9083	-40	210	96	264	12016	264	68905864
711	259	3989	-309	-979	-9093	-40	210	96	265	12045	265	68905865
720	258	4011	-308	-982	-9115	-37	205	95	266	12139	266	68905866
723	274	4000	-308	-980	-9080	-37	205	95	267	12166	267	68905870
693	257	3983	-306	-977	-9073	-37	205	95	268	12195	268	68905871
692	256	3967	-308	-980	-9107	-38	216	96	269	12289	269	68905876
700	242	3970	-309	-976	-9092	-38	216	96	270	12317	270	68905877
723	262	4001	-308	-976	-9089	-38	216	96	271	12346	271	68905877
705	269	4006	-305	-974	-9117	-41	211	91	272	12440	272	68905883
708	264	4006	-305	-976	-9100	-41	211	91	273	12467	273	68905883
713	258	4001	-306	-981	-9086	-41	211	91	274	12496	274	68905890
710	251	3997	-308	-981	-9079	-32	218	98	275	12590	275	68905891
712	258	3976	-310	-986	-9046	-32	218	98	276	12617	276	68905891
700	252	3977	-307	-974	-9106	-32	218	98	277	12646	277	68905896
702	250	3984	-305	-975	-9088	-27	217	93	278	12740	278	68905897
701	284	3994	-300	-978	-9083	-27	217	93	279	12767	279	68905903
706	247	3996	-310	-975	-9105	-27	217	93	280	12796	280	68905904
733	251	3980	-312	-980	-9072	-18	222	94	281	12890	281	68905904
723	239	3985	-311	-981	-9062	-18	222	94	282	12917	282	68905909
699	251	3986	-311	-980	-9067	-18	222	94	283	12946	283	68905912
714	256	3977	-310	-980	-9100	-18	224	102	284	13040	284	68905916
710	257	3996	-311	-978	-9081	-18	224	102	285	13067	285	68905917
718	243	4004	-312	-987	-9137	-18	224	102	286	13096	286	68905923
703	249	3977	-309	-982	-9119	-19	233	99	287	13190	287	68905923
707	245	3987	-306	-975	-9079	-19	233	99	288	13217	288	68905924
720	263	3966	-303	-983	-9055	-19	233	99	289	13246	289	68905929
703	256	3974	-308	-979	-9057	-16	228	104	290	13340	290	68905932
707	254	3969	-310	-981	-9077	-16	228	104	291	13368	291	68905942
711	249	3964	-310	-983	-9106	-16	228	104	292	13396	292	68905942
704	253	3997	-309	-979	-9092	-10	222	100	293	13490	293	68905943
709	258	3983	-308	-978	-9087	-10	222	100	294	13517	294	68905944
712	253	4010	-308	-980	-9095	-10	222	100	295	13546	295	68905944
721	239	3980	-311	-975	-9071	-12	228	102	296	13640	296	68905948
721	245	3983	-310	-978	-9103	-12	228	102	297	13667	297	68905948
717	238	3972	-307	-976	-9105	-12	228	102	298	13696	298	68905948
715	250	3969	-307	-976	-9086	-3	231	101	299	13790	299	68905954
718	253	3989	-305	-979	-9062	-3	231	101	300	13817	300	68905954
709	256	3994	-307	-981	-9051	-3	231	101	301	13846	301	68905963
704	253	3975	-309	-985	-9058	8	228	102	302	13940	302	68905963
712	256	3998	-308	-985	-9065	8	228	102	303	13967	303	68905963
713	251	3985	-309	-973	-9113	8	228	102	304	13996	304	68905967
712	253	4002	-313	-984	-9097	5	229	101	305	14090	305	68905967
706	258	3980	-312	-987	-9085	5	229	101	306	14117	306	68905974
715	255	4011	-310	-979	-9077	5	229	101	307	14146	307	68905974
719	260	3992	-309	-981	-9076	13	229	105	308	14240	308	68905975
721	246	3983	-309	-977	-9102	13	229	105	309	14267	309	68905980
705	249	4005	-311	-980	-9096	13	229	105	310	14296	310	68905981
704	254	4005	-307	-983	-9095	13	233	109	311	14390	311	68905987
724	257	4004	-308	-980	-9121	13	233	109	312	14418	312	68905987
715	260	3964	-305	-978	-9093	13	233	109	313	14446	313	68905988
702	245	3953	-309	-974	-9067	16	236	106	314	14540	314	68905993
711	249	3966	-307	-983	-9075	16	236	106	315	14568	315	68905993
725	254	3961	-306	-981	-9099	16	236	106	316	14591	316	68906005
725	260	3978	-309	-976	-9099	19	233	101	317	14689	317	68906006
692	260	3996	-311	-974	-9106	19	233	101	318	14718	318	68906008
707	258	3999	-310	-981	-9082	19	233	101	319	14728	319	68906008
716	249	3964	-306	-981	-9071	19	233	101	320	14756	320	68906009
722	248	3991	-309	-979	-9091	23	229	101	321	14850	321	68906014
715	236	3985	-307	-981	-9071	23	229	101	322	14877	322	68906015
706	253	3979	-306	-982	-9068	23	229	101	323	14906	323	68906021
724	257	3959	-308	-979	-9083	28	234	100	324	15000	324	68906022
724	259	3972	-310	-979	-9089	28	234	100	325	15027	325	68906022
726	232	4003	-306	-980	-9056	28	234	100	326	15056	326	68906028
726	244	3962	-305	-979	-9078	38	234	102	327	15150	327	68906028
723	251	3957	-304	-981	-9080	38	234	102	328	15177	328	68906035
724	264	3976	-306	-986	-9104	38	234	102	329	15206	329	68906036
736	256	4001	-307	-985	-9125	45	233	103	330	15300	330	68906037
741	261	3995	-311	-985	-9091	45	233	103	331	15328	331	68906039
730	248	3997	-309	-978	-9111	45	233	103	332	15357	332	68906040
718	252	4007	-306	-977	-9121	37	231	103	333	15451	333	68906047
731	249	4013	-309	-982	-9080	37	231	103	334	15478	334	68906047
718	241	3998	-309	-975	-9116	37	231	103	335	15507	335	68906048
731	237	3967	-307	-981	-9109	44	232	104	336	15601	336	68906053
738	251	3952	-307	-984	-9078	44	232	104	337	15628	337	68906053
732	245	3974	-310	-973	-9075	44	232	104	338	15657	338	68906059
726	260	3987	-311	-978	-9090	46	230	114	339	15751	339	68906060
723	254	3961	-311	-978	-9102	46	230	114	340	15779	340	68906060
712	247	3982	-308	-975	-9070	46	230	114	341	15807	341	68906068
711	246	3952	-308	-979	-9114	55	231	109	342	15901	342	68906069
717	249	3941	-308	-976	-9106	55	231	109	343	15928	343	68906072
735	240	3994	-308	-989	-9085	55	231	109	344	15957	344	68906073
728	249	3985	-310	-984	-9089	57	229	111	345	16051	345	68906078
735	257	3980	-308	-976	-9072	57	229	111	346	16079	346	68906078
717	253	3975	-306	-979	-9085	57	229	111	347	16108	347	68906079
717	239	3982	-308	-974	-9102	66	230	112	348	16202	348	68906085
733	247	3976	-307	-979	-9128	66	230	112	349	16229	349	68906086
714	248	3979	-312	-984	-9082	66	230	112	350	16258	350	68906091
720	257	3951	-307	-974	-9075	71	229	105	351	16352	351	68906092
735	253	3969	-306	-971	-9089	71	229	105	352	16380	352	68906092
732	235	3993	-313	-978	-9085	71	229	105	353	16409	353	68906098
730	222	3985	-310	-978	-9090	71	229	109	354	16503	354	68906098
730	224	3984	-311	-982	-9090	71	229	109	355	16530	355	68906105
715	251	4000	-305	-978	-9132	71	229	109	356	16559	356	68906105
720	260	3983	-306	-980	-9105	78	224	106	357	16653	357	68906106
726	264	3997	-305	-982	-9090	78	224	106	358	16680	358	68906109
739	256	3985	-308	-977	-9072	78	224	106	359	16709	359	68906109
731	259	3981	-309	-981	-9094	74	218	114	360	16803	360	68906118
747	256	3981	-309	-980	-9097	74	218	114	361	16830	361	68906119
718	250	3963	-306	-974	-9093	74	218	114	362	16859	362	68906119
731	245	3985	-306	-984	-9070	88	220	110	363	16953	363	68906124
742	244	3991	-308	-983	-9069	88	220	110	364	16980	364	68906125
733	232	3981	-310	-980	-9104	88	220	110	365	17009	365	68906131
718	239	3989	-309	-981	-9106	76	216	114	366	17103	366	68906132
719	234	4014	-306	-975	-9094	76	216	114	367	17130	367	68906133
728	249	4008	-308	-981	-9112	76	216	114	368	17159	368	68906137
742	247	3989	-307	-980	-9082	98	216	106	369	17253	369	68906137
748	248	3983	-307	-975	-9073	98	216	106	370	17280	370	68906143
737	245	3975	-305	-983	-9102	98	216	106	371	17309	371	68906143
740	259	3973	-305	-978	-9087	90	208	112	372	17403	372	68906144
745	258	3983	-306	-982	-9106	90	208	112	373	17431	373	68906149
727	253	3978	-310	-987	-9107	90	208	112	374	17460	374	68906150
734	255	3973	-309	-981	-9090	98	210	116	375	17554	375	68906156
748	261	3960	-308	-982	-9074	98	210	116	376	17582	376	68906157
723	262	4008	-304	-979	-9085	98	210	116	377	17610	377	68906163
737	261	3999	-307	-981	-9075	100	206	110	378	17698	378	68906163
735	253	3998	-309	-983	-9090	100	206	110	379	17731	379	68906163
728	247	3990	-309	-974	-9094	100	206	110	380	17760	380	68906169
733	248	3984	-309	-976	-9086	109	199	115	381	17854	381	68906169
730	243	3970	-310	-980	-9084	109	199	115	382	17881	382	68906175
727	249	3985	-312	-976	-9059	109	199	115	383	17910	383	68906176
717	235	3986	-313	-977	-9074	110	200	118	384	18004	384	68906176
733	244	4002	-313	-974	-9083	110	200	118	385	18031	385	68906182
719	239	4003	-309	-977	-9104	110	200	118	386	18060	386	68906183
739	241	3984	-309	-978	-9126	118	194	122	387	18154	387	68906188
738	248	3972	-309	-970	-9080	118	194	122	388	18181	388	68906188
737	243	3995	-307	-980	-9070	118	194	122	389	18210	389	68906191
742	261	3983	-310	-974	-9100	116	190	122	390	18304	390	68906196
733	273	3976	-309	-969	-9110	116	190	122	391	18332	391	68906196
756	249	3968	-309	-985	-9075	116	190	122	392	18361	392	68906202
742	238	3979	-309	-982	-9093	119	189	119	393	18454	393	68906202
731	236	3969	-311	-981	-9096	119	189	119	394	18482	394	68906203
735	252	3982	-305	-979	-9050	119	189	119	395	18510	395	68906208
742	244	3980	-305	-977	-9077	122	186	126	396	18604	396	68906208
744	229	3989	-309	-978	-9070	122	186	126	397	18631	397	68906214
754	251	3978	-308	-979	-9105	122	186	126	398	18660	398	68906214
749	234	3983	-310	-978	-9135	121	187	135	399	18754	399	68906214
755	250	3973	-307	-980	-9116	121	187	135	400	18781	400	68906220
749	265	4005	-300	-971	-9090	121	187	135	401	18810	401	68906220
743	266	4000	-304	-977	-9090	132	172	128	402	18904	402	68906226
755	256	3980	-306	-977	-9066	132	172	128	403	18931	403	68906227
748	247	3980	-313	-971	-9084	132	172	128	404	18960	404	68906234
755	248	3987	-309	-975	-9104	125	175	137	405	19054	405	68906234
752	266	3969	-306	-978	-9121	125	175	137	406	19082	406	68906235
736	260	3978	-306	-974	-9062	125	175	137	407	19110	407	68906240
732	270	3994	-310	-977	-9088	134	168	128	408	19204	408	68906240
740	267	4025	-311	-977	-9082	134	168	128	409	19232	409	68906246
740	258	3968	-308	-979	-9087	134	168	128	410	19261	410	68906247
744	247	3989	-311	-978	-9111	126	164	138	411	19355	411	68906247
739	246	3989	-309	-974	-9113	126	164	138	412	19383	412	68906253
732	241	3984	-315	-983	-9094	126	164	138	413	19412	413	68906253
743	247	3985	-311	-975	-9095	137	161	135	414	19505	414	68906259
746	259	3985	-304	-971	-9072	137	161	135	415	19533	415	68906259
745	248	3996	-305	-976	-9075	137	161	135	416	19562	416	68906261
745	248	3987	-307	-974	-9064	129	149	143	417	19656	417	68906266
755	260	3992	-312	-976	-9108	129	149	143	418	19683	418	68906267
752	260	4002	-306	-985	-9049	129	149	143	419	19712	419	68906273
744	263	3977	-305	-979	-9052	134	148	138	420	19806	420	68906273
746	262	3992	-307	-977	-9096	134	148	138	421	19833	421	68906273
741	265	3986	-315	-973	-9085	134	148	138	422	19862	422	68906279
731	247	4009	-315	-977	-9083	124	144	152	423	19956	423	68906279
743	255	4006	-316	-987	-9109	124	144	152	424	19984	424	68906286
750	257	3988	-307	-973	-9118	124	144	152	425	20012	425	68906287
756	272	3972	-307	-980	-9111	134	134	146	426	20106	426	68906287
738	262	3980	-308	-976	-9065	134	134	146	427	20133	427	68906290
758	257	3965	-315	-977	-9084	134	134	146	428	20162	428	68906290
769	246	3962	-310	-986	-9069	120	136	144	429	20256	429	68906298
754	256	3982	-308	-981	-9068	120	136	144	430	20284	430	68906298
748	266	4011	-306	-973	-9104	120	136	144	431	20313	431	68906305
749	257	3983	-305	-977	-9062	127	125	147	432	20407	432	68906306
740	247	4002	-307	-972	-9061	127	125	147	433	20435	433	68906306
731	269	3971	-308	-978	-9071	127	125	147	434	20464	434	68906314
725	271	3959	-307	-978	-9051	120	126	148	435	20558	435	68906315
734	287	3953	-308	-981	-9076	120	126	148	436	20586	436	68906318
755	253	3978	-314	-982	-9118	120	126	148	437	20614	437	68906318
754	254	3979	-312	-977	-9058	126	116	152	438	20708	438	68906319
764	254	3978	-308	-980	-9087	126	116	152	439	20735	439	68906324
742	258	3971	-311	-979	-9074	126	116	152	440	20764	440	68906325
751	262	4007	-309	-973	-9038	113	119	153	441	20858	441	68906332
751	269	3968	-311	-978	-9073	113	119	153	442	20886	442	68906332
753	266	3970	-316	-983	-9118	113	119	153	443	20914	443	68906332
759	257	3966	-311	-980	-9081	117	111	153	444	21008	444	68906338
751	256	3976	-305	-985	-9067	117	111	153	445	21035	445	68906338
730	285	3971	-302	-969	-9035	117	111	153	446	21064	446	68906344
729	273	3986	-303	-976	-9057	101	113	147	447	21158	447	68906344
738	267	3954	-308	-983	-9078	101	113	147	448	21185	448	68906344
730	260	4000	-308	-975	-9101	101	113	147	449	21214	449	68906350
738	268	3983	-310	-980	-9109	104	106	162	450	21308	450	68906351
738	260	3968	-307	-975	-9084	104	106	162	451	21335	451	68906356
733	260	3993	-310	-976	-9067	104	106	162	452	21364	452	68906357
748	264	3994	-308	-982	-9068	98	100	140	453	21458	453	68906357
747	274	3980	-306	-975	-9058	98	100	140	454	21486	454	68906363
740	277	3979	-310	-983	-9090	98	100	140	455	21515	455	68906363
749	266	3965	-310	-985	-9103	95	103	161	456	21609	456	68906369
759	257	3974	-311	-976	-9084	95	103	161	457	21636	457	68906369
753	271	3995	-310	-980	-9057	95	103	161	458	21665	458	68906370
735	275	3987	-307	-975	-9074	92	92	140	459	21759	459	68906377
733	263	3985	-309	-971	-9066	92	92	140	460	21786	460	68906377
740	267	3972	-307	-979	-9064	92	92	140	461	21815	461	68906383
752	262	3965	-313	-975	-9110	83	99	155	462	21909	462	68906383
749	267	3974	-313	-976	-9093	83	99	155	463	21936	463	68906391
756	270	3989	-306	-975	-9055	83	99	155	464	21965	464	68906392
742	281	3999	-305	-969	-9059	88	84	134	465	22059	465	68906392
738	289	3983	-307	-973	-9057	88	84	134	466	22086	466	68906394
720	285	3993	-313	-974	-9080	88	84	134	467	22115	467	68906395
747	280	3973	-312	-974	-9066	81	93	147	468	22209	468	68906427
750	269	3977	-309	-986	-9077	81	93	147	469	22236	469	68906427
758	272	3986	-308	-977	-9104	81	93	147	470	22265	470	68906427
765	268	3993	-307	-976	-9087	81	83	133	471	22353	471	68906429
752	274	3997	-304	-976	-9045	81	83	133	472	22386	472	68906430
758	273	3979	-301	-978	-9045	81	83	133	473	22415	473	68906432
750	268	3989	-304	-981	-9097	74	84	138	474	22509	474	68906432
756	278	3989	-306	-981	-9082	74	84	138	475	22537	475	68906434
750	271	3998	-311	-977	-9081	74	84	138	476	22565	476	68906435
744	269	3988	-308	-982	-9070	71	75	127	477	22659	477	68906435
738	268	3986	-305	-973	-9058	71	75	127	478	22686	478	68906436
727	284	3981	-305	-977	-9077	71	75	127	479	22715	479	68906437
730	293	3966	-307	-980	-9093	79	79	133	480	22809	480	68906438
739	285	3978	-318	-981	-9105	79	79	133	481	22836	481	68906439
753	264	3960	-319	-987	-9079	79	79	133	482	22865	482	68906440
755	260	3966	-316	-979	-9075	67	69	129	483	22959	483	68906441
754	262	3965	-315	-971	-9112	67	69	129	484	22986	484	68906442
754	302	4000	-304	-979	-9070	67	69	129	485	23015	485	68906443
737	286	3983	-310	-976	-9073	64	72	134	486	23109	486	68906448
738	277	3984	-314	-984	-9099	64	72	134	487	23136	487	68906449
753	272	3996	-309	-979	-9092	64	72	134	488	23165	488	68906454
738	270	3995	-308	-975	-9078	56	76	118	489	23253	489	68906455
740	280	3992	-302	-978	-9060	56	76	118	490	23286	490	68906461
726	315	4006	-304	-977	-9102	56	76	118	491	23315	491	68906462
718	290	3983	-304	-980	-9087	68	68	122	492	23409	492	68906462
714	271	3976	-308	-980	-9141	68	68	122	493	23437	493	68906467
749	284	3965	-315	-981	-9094	68	68	122	494	23465	494	68906468
762	293	3989	-310	-976	-9073	57	69	123	495	23559	495	68906472
750	289	3988	-309	-974	-9066	57	69	123	496	23587	496	68906473
739	300	3981	-309	-974	-9100	57	69	123	497	23615	497	68906473
743	283	3976	-307	-979	-9090	60	68	116	498	23709	498	68906479
741	284	3969	-314	-979	-9081	60	68	116	499	23736	499	68906479
747	284	3980	-310	-983	-9077	60	68	116	500	23765	500	68906487
733	296	3987	-310	-985	-9058	51	67	121	501	23859	501	68906487
743	287	3988	-312	-977	-9087	51	67	121	502	23886	502	68906487
723	274	3986	-312	-983	-9074	51	67	121	503	23915	503	68906493
736	282	3962	-307	-978	-9066	48	60	110	504	24009	504	68906493
735	295	3981	-307	-979	-9070	48	60	110	505	24036	505	68906499
734	298	3972	-310	-986	-9095	48	60	110	506	24065	506	68906499
745	282	3961	-309	-979	-9096	53	63	121	507	24159	507	68906500
748	278	3979	-307	-981	-9106	53	63	121	508	24186	508	68906505
751	280	4007	-307	-976	-9073	53	63	121	509	24215	509	68906506
739	282	3994	-311	-978	-9092	47	59	111	510	24309	510	68906512
733	273	3976	-311	-977	-9072	47	59	111	511	24336	511	68906512
751	282	3970	-310	-976	-9085	47	59	111	512	24365	512	68906512
754	284	3978	-311	-976	-9078	39	65	115	513	24459	513	68906519
755	296	3987	-311	-979	-9100	39	65	115	514	24487	514	68906521
736	285	3967	-306	-975	-9088	39	65	115	515	24516	515	68906525
729	280	3996	-309	-976	-9075	44	56	106	516	24609	516	68906526
729	286	3995	-307	-973	-9084	44	56	106	517	24637	517	68906526
730	303	3998	-306	-970	-9074	44	56	106	518	24666	518	68906532
735	298	3980	-308	-975	-9101	38	54	112	519	24760	519	68906532
744	281	3973	-309	-983	-9098	38	54	112	520	24787	520	68906538
753	275	3978	-311	-981	-9066	38	54	112	521	24816	521	68906538
752	286	3954	-312	-981	-9077	33	49	107	522	24910	522	68906544
727	288	3973	-311	-974	-9056	33	49	107	523	24937	523	68906544
729	306	4012	-306	-978	-9070	33	49	107	524	24966	524	68906545
737	299	4003	-311	-985	-9094	35	51	107	525	25060	525	68906550
729	285	3984	-311	-984	-9056	35	51	107	526	25087	526	68906551
731	277	3970	-311	-991	-9095	35	51	107	527	25116	527	68906558
731	281	3986	-309	-981	-9086	28	58	98	528	25210	528	68906558
735	299	3975	-305	-976	-9040	28	58	98	529	25237	529	68906558
718	289	3968	-308	-981	-9067	28	58	98	530	25266	530	68906564
720	298	3980	-307	-980	-9087	32	56	100	531	25360	531	68906564
738	286	3985	-307	-980	-9083	32	56	100	532	25387	532	68906570
749	284	3953	-303	-980	-9045	32	56	100	533	25416	533	68906570
738	282	3963	-304	-978	-9046	27	53	97	534	25510	534	68906571
726	282	3985	-303	-983	-9054	27	53	97	535	25537	535	68906576
714	295	3974	-309	-974	-9076	27	53	97	536	25566	536	68906577
728	298	3973	-305	-976	-9101	23	53	99	537	25660	537	68906583
731	289	3984	-301	-981	-9063	23	53	99	538	25688	538	68906583
734	292	3946	-310	-974	-9062	23	53	99	539	25716	539	68906584
731	279	3969	-311	-975	-9076	20	62	82	540	25810	540	68906589
729	287	3994	-310	-975	-9045	20	62	82	541	25837	541	68906589
717	285	3990	-310	-970	-9067	20	62	82	542	25866	542	68906596
728	304	3994	-306	-973	-9092	13	57	91	543	25960	543	68906597
741	304	3983	-306	-975	-9082	13	57	91	544	25987	544	68906597
737	294	3972	-310	-977	-9075	13	57	91	545	26016	545	68906603
728	295	3963	-315	-980	-9076	17	51	91	546	26110	546	68906603
728	306	3979	-318	-978	-9075	17	51	91	547	26137	547	68906609
713	293	3987	-311	-986	-9065	17	51	91	548	26166	548	68906609
726	289	3988	-310	-981	-9067	13	51	83	549	26260	549	68906610
732	295	3966	-310	-978	-9065	13	51	83	550	26287	550	68906615
727	318	3983	-308	-988	-9061	13	51	83	551	26316	551	68906616
735	309	3992	-310	-980	-9082	9	53	83	552	26410	552	68906621
729	307	4005	-310	-981	-9092	9	53	83	553	26437	553	68906622
732	296	3994	-310	-980	-9076	9	53	83	554	26466	554	68906628
710	290	4002	-313	-974	-9082	11	51	83	555	26560	555	68906628
734	285	4011	-312	-977	-9077	11	51	83	556	26588	556	68906629
727	283	3975	-306	-976	-9071	11	51	83	557	26616	557	68906635
746	299	3963	-305	-975	-9084	9	51	83	558	26710	558	68906636
742	295	3956	-309	-979	-9088	9	51	83	559	26737	559	68906641
716	274	3983	-308	-972	-9053	9	51	83	560	26766	560	68906643
712	281	3983	-311	-974	-9060	8	50	80	561	26860	561	68906643
724	294	3987	-307	-979	-9089	8	50	80	562	26887	562	68906648
728	303	3966	-305	-969	-9084	8	50	80	563	26916	563	68906678
727	303	3964	-305	-977	-9072	6	54	84	564	27010	564	68906679
709	302	3960	-305	-980	-9079	6	54	84	565	27037	565	68906682
728	284	3972	-309	-973	-9071	6	54	84	566	27066	566	68906682
736	292	3970	-305	-980	-9071	3	51	77	567	27160	567	68906682
729	290	3983	-304	-981	-9087	3	51	77	568	27187	568	68906683
711	306	3974	-313	-984	-9089	3	51	77	569	27216	569	68906683
720	295	3982	-317	-984	-9095	-1	51	79	570	27310	570	68906683
742	284	3993	-312	-979	-9086	-1	51	79	571	27338	571	68906683
723	299	3971	-305	-984	-9079	-1	51	79	572	27367	572	68906684
732	297	3985	-309	-977	-9086	1	51	73	573	27461	573	68906684
740	283	3981	-308	-974	-9103	1	51	73	574	27488	574	68906684
728	264	4005	-313	-984	-9095	1	51	73	575	27517	575	68906684
733	283	4001	-309	-978	-9082	0	54	74	576	27611	576	68906684
710	290	3987	-306	-978	-9081	0	54	74	577	27639	577	68906686
730	295	3975	-302	-976	-9089	0	54	74	578	27667	578	68906687
731	299	3959	-305	-970	-9083	1	53	83	579	27761	579	68906693
745	285	3960	-309	-974	-9061	1	53	83	580	27788	580	68906693
718	287	3963	-308	-975	-9066	1	53	83	581	27817	581	68906693
711	302	3974	-308	-972	-9093	-7	57	75	582	27911	582	68906701
720	302	3984	-309	-976	-9091	-7	57	75	583	27938	583	68906701
728	299	3978	-313	-975	-9070	-7	57	75	584	27967	584	68906706
719	290	3981	-311	-979	-9070	-3	53	77	585	28061	585	68906706
724	286	3977	-308	-979	-9049	-3	53	77	586	28088	586	68906712
699	293	3973	-307	-976	-9046	-3	53	77	587	28117	587	68906713
694	300	3975	-305	-977	-9072	-13	59	79	588	28211	588	68906713
713	292	3981	-308	-978	-9065	-13	59	79	589	28238	589	68906719
733	285	3988	-314	-987	-9087	-13	59	79	590	28267	590	68906720
720	284	3982	-309	-986	-9069	-16	60	78	591	28361	591	68906725
733	292	3970	-308	-978	-9043	-16	60	78	592	28388	592	68906725
721	292	3985	-306	-976	-9054	-16	60	78	593	28417	593	68906726
715	291	3982	-304	-980	-9110	-12	56	74	594	28505	594	68906729
718	295	3986	-309	-982	-9119	-12	56	74	595	28516	595	68906731
730	283	4006	-308	-984	-9077	-12	56	74	596	28634	596	68906736
731	282	4001	-306	-979	-9054	-12	56	74	597	28752	597	68906737
741	299	3987	-308	-980	-9035	-19	65	73	598	28846	598	68906737
724	302	3994	-311	-979	-9094	-19	65	73	599	28856	599	68906742
740	289	3984	-312	-974	-9077	-19	65	73	600	28974	600	68906742
741	270	3981	-315	-975	-9084	-19	65	73	601	29092	601	68906747
730	269	3988	-311	-984	-9097	-20	56	74	602	29186	602	68906748
723	298	4002	-307	-977	-9065	-20	56	74	603	29196	603	68906748
723	297	3985	-306	-976	-9072	-20	56	74	604	29314	604	68906751
714	293	3968	-313	-982	-9045	-20	56	74	605	29432	605	68906752
708	289	3969	-315	-979	-9057	-26	64	80	606	29525	606	68906760
717	284	3970	-315	-975	-9055	-26	64	80	607	29536	607	68906761
714	280	3980	-310	-977	-9082	-26	64	80	608	29654	608	68906761
721	281	3972	-312	-970	-9076	-23	67	79	609	29755	609	68906767
719	303	3960	-315	-975	-9087	-23	67	79	610	29806	610	68906767
708	300	3947	-312	-974	-9072	-23	67	79	611	29835	611	68906774
706	284	3944	-310	-971	-9071	-23	67	79	612	29953	612	68906774
719	281	3976	-311	-972	-9073	-26	68	76	613	30064	613	68906774
718	296	3959	-308	-976	-9096	-26	68	76	614	30093	614	68906780
707	313	3981	-309	-982	-9095	-26	68	76	615	30102	615	68906780
724	301	3968	-305	-984	-9092	-26	68	76	616	30131	616	68906787
713	298	3963	-304	-978	-9098	-33	65	73	617	30225	617	68906787
714	285	3959	-304	-978	-9077	-33	65	73	618	30253	618	68906794
720	300	3963	-309	-980	-9074	-33	65	73	619	30282	619	68906794
725	293	3979	-310	-977	-9107	-26	64	74	620	30375	620	68906795
727	279	3986	-311	-982	-9133	-26	64	74	621	30403	621	68906798
704	276	3958	-309	-980	-9098	-26	64	74	622	30432	622	68906798
701	294	3981	-305	-977	-9088	-40	72	78	623	30526	623	68906806
708	306	4017	-306	-979	-9042	-40	72	78	624	30554	624	68906807
702	299	3978	-312	-969	-9045	-40	72	78	625	30582	625	68906807
705	285	3971	-312	-976	-9090	-42	70	76	626	30676	626	68906812
706	281	3962	-309	-981	-9086	-42	70	76	627	30703	627	68906813
723	283	3990	-309	-976	-9067	-42	70	76	628	30732	628	68906819
727	289	3985	-311	-981	-9116	-40	76	74	629	30826	629	68906819
721	283	3977	-314	-979	-9082	-40	76	74	630	30853	630	68906819
693	268	3994	-316	-980	-9054	-40	76	74	631	30882	631	68906827
708	267	3986	-314	-982	-9070	-40	76	72	632	30976	632	68906827
727	266	3984	-311	-976	-9087	-40	76	72	633	31003	633	68906830
685	284	3991	-313	-980	-9070	-40	76	72	634	31027	634	68906831
685	279	3993	-315	-978	-9091	-48	78	76	635	31121	635	68906831
691	272	3994	-306	-980	-9099	-48	78	76	636	31131	636	68906837
699	278	3950	-308	-981	-9058	-48	78	76	637	31243	637	68906837
714	284	3959	-309	-982	-9097	-48	78	76	638	31361	638	68906843
710	282	3974	-307	-979	-9082	-50	78	74	639	31455	639	68906843
702	280	3985	-308	-981	-9108	-50	78	74	640	31465	640	68906843
703	288	3999	-306	-982	-9088	-50	78	74	641	31582	641	68906851
704	281	3971	-307	-983	-9103	-50	88	78	642	31687	642	68906853
701	306	3994	-299	-985	-9062	-50	88	78	643	31716	643	68906857
691	310	3999	-313	-974	-9075	-50	88	78	644	31725	644	68906857
695	276	3966	-313	-983	-9070	-50	88	78	645	31754	645	68906863
718	277	3981	-309	-986	-9090	-51	81	81	646	31848	646	68906863
710	274	3978	-307	-982	-9078	-51	81	81	647	31875	647	68906863
708	294	3961	-310	-984	-9093	-51	81	81	648	31904	648	68906871
693	291	3954	-309	-974	-9066	-53	89	75	649	31998	649	68906874
699	287	3968	-309	-970	-9060	-53	89	75	650	32025	650	68906876
707	298	3992	-315	-985	-9075	-53	89	75	651	32054	651	68906877
697	292	3973	-312	-981	-9095	-53	87	75	652	32148	652	68906877
695	287	3977	-305	-975	-9091	-53	87	75	653	32175	653	68906880
692	281	3977	-311	-973	-9100	-53	87	75	654	32204	654	68906881
705	281	3960	-312	-969	-9083	-60	94	74	655	32298	655	68906914
700	272	3974	-309	-977	-9090	-60	94	74	656	32325	656	68906914
709	287	3976	-312	-981	-9103	-60	94	74	657	32348	657	68906915
703	276	3964	-311	-976	-9079	-64	92	82	658	32447	658	68906917
696	267	3968	-310	-979	-9097	-64	92	82	659	32476	659	68906917
699	270	3988	-310	-986	-9070	-64	92	82	660	32485	660	68906919
687	287	3964	-307	-979	-9092	-64	92	82	661	32514	661	68906919
685	284	3959	-303	-975	-9066	-60	108	76	662	32608	662	68906922
682	287	3963	-306	-978	-9057	-60	108	76	663	32635	663	68906923
715	272	3958	-309	-981	-9104	-60	108	76	664	32664	664	68906923
707	270	3971	-311	-977	-9109	-71	105	79	665	32752	665	68906924
695	282	3985	-303	-982	-9067	-71	105	79	666	32785	666	68906924
696	288	3995	-301	-977	-9065	-71	105	79	667	32814	667	68906925
702	281	3976	-305	-978	-9040	-66	110	76	668	32908	668	68906926
709	275	4003	-311	-984	-9057	-66	110	76	669	32935	669	68906927
710	285	3994	-311	-981	-9072	-66	110	76	670	32964	670	68906929
728	280	3965	-312	-983	-9072	-69	107	77	671	33058	671	68906933
731	277	3952	-310	-980	-9109	-69	107	77	672	33085	672	68906935
700	277	3971	-311	-975	-9084	-69	107	77	673	33114	673	68906936
704	272	3991	-309	-977	-9072	-65	107	81	674	33208	674	68906936
709	273	3968	-313	-980	-9059	-65	107	81	675	33235	675	68906942
715	261	3991	-313	-980	-9072	-65	107	81	676	33264	676	68906943
715	266	3997	-308	-978	-9063	-72	120	80	677	33358	677	68906948
704	263	3982	-309	-972	-9067	-72	120	80	678	33385	678	68906949
701	260	3989	-310	-980	-9080	-72	120	80	679	33414	679	68906951
686	267	3972	-310	-981	-9068	-73	119	83	680	33508	680	68906955
673	275	3982	-311	-977	-9065	-73	119	83	681	33536	681	68906955
677	295	3963	-307	-976	-9110	-73	119	83	682	33565	682	68906961
690	273	3974	-309	-976	-9107	-73	125	83	683	33659	683	68906961
694	271	3974	-308	-977	-9100	-73	125	83	684	33686	684	68906962
693	267	3986	-313	-979	-9096	-73	125	83	685	33715	685	68906967
685	267	3989	-311	-974	-9108	-70	124	82	686	33809	686	68906968
704	275	3998	-308	-976	-9084	-70	124	82	687	33837	687	68906974
687	270	3976	-312	-979	-9067	-70	124	82	688	33865	688	68906974
691	257	3966	-314	-987	-9061	-70	130	86	689	33959	689	68906974
697	261	3970	-313	-990	-9054	-70	130	86	690	33986	690	68906980
709	258	3951	-307	-974	-9088	-70	130	86	691	34015	691	68906981
696	267	3964	-303	-976	-9098	-70	132	84	692	34109	692	68906987
691	282	3994	-307	-979	-9053	-70	132	84	693	34137	693	68906987
694	278	3974	-309	-981	-9056	-70	132	84	694	34165	694	68906987
691	262	3957	-310	-979	-9074	-74	140	80	695	34259	695	68906994
684	255	3966	-309	-979	-9077	-74	140	80	696	34286	696	68906994
694	269	3976	-306	-979	-9096	-74	140	80	697	34315	697	68907001
704	267	3996	-310	-986	-9095	-71	145	83	698	34409	698	68907001
721	277	3988	-311	-984	-9078	-71	145	83	699	34436	699	68907006
699	273	3986	-315	-983	-9052	-71	145	83	700	34465	700	68907007
697	265	3951	-312	-981	-9078	-71	143	81	701	34559	701	68907007
704	267	3965	-309	-975	-9098	-71	143	81	702	34587	702	68907013
699	257	3993	-310	-983	-9104	-71	143	81	703	34616	703	68907013
703	248	3977	-312	-974	-9103	-71	153	87	704	34710	704	68907019
712	258	3970	-312	-973	-9056	-71	153	87	705	34738	705	68907019
679	284	3997	-309	-980	-9066	-71	153	87	706	34766	706	68907020
688	266	3979	-310	-974	-9084	-71	153	85	707	34860	707	68907025
693	274	3990	-314	-974	-9082	-71	153	85	708	34887	708	68907026
703	255	3952	-310	-982	-9097	-71	153	85	709	34916	709	68907033
718	266	3982	-310	-975	-9093	-71	159	81	710	35010	710	68907033
697	265	3980	-308	-980	-9089	-71	159	81	711	35037	711	68907033
696	287	3988	-305	-977	-9059	-71	159	81	712	35066	712	68907039
699	284	3994	-309	-974	-9058	-66	160	84	713	35160	713	68907039
702	285	3972	-309	-979	-9061	-66	160	84	714	35188	714	68907068
698	272	3965	-308	-982	-9087	-66	160	84	715	35216	715	68907069
711	277	3990	-306	-982	-9083	-70	166	82	716	35304	716	68907069
700	260	4005	-309	-976	-9098	-70	166	82	717	35315	717	68907071
689	267	4009	-310	-974	-9082	-70	166	82	718	35433	718	68907072
691	256	4002	-310	-980	-9051	-70	166	82	719	35551	719	68907073
697	257	3981	-309	-984	-9043	-74	172	80	720	35645	720	68907073
701	249	3988	-313	-982	-9065	-74	172	80	721	35655	721	68907074
708	251	3993	-314	-979	-9093	-74	172	80	722	35773	722	68907075
704	260	3995	-311	-975	-9083	-74	172	80	723	35891	723	68907076
702	265	3988	-313	-977	-9082	-69	177	81	724	35985	724	68907078
685	251	3969	-314	-980	-9074	-69	177	81	725	35995	725	68907078
690	256	3970	-312	-979	-9050	-69	177	81	726	36113	726	68907082
688	247	3965	-310	-973	-9053	-69	177	81	727	36231	727	68907083
683	253	3970	-309	-973	-9067	-63	179	85	728	36324	728	68907084
705	256	3987	-312	-979	-9078	-63	179	85	729	36335	729	68907084
706	292	4000	-309	-975	-9077	-63	179	85	730	36453	730	68907085
713	280	3979	-307	-976	-9090	-68	184	86	731	36555	731	68907085
704	258	3982	-303	-971	-9070	-68	184	86	732	36605	732	68907086
679	265	4000	-308	-974	-9081	-68	184	86	733	36634	733	68907087
697	271	3996	-308	-985	-9062	-68	184	86	734	36752	734	68907093
695	256	3981	-312	-983	-9110	-58	182	90	735	36863	735	68907093
720	249	3989	-308	-983	-9061	-58	182	90	736	36892	736	68907100
691	257	3986	-309	-971	-9111	-58	182	90	737	36901	737	68907101
691	246	3991	-310	-972	-9089	-58	182	90	738	36930	738	68907101
687	259	3995	-310	-983	-9078	-61	187	89	739	37024	739	68907107
701	259	3987	-311	-980	-9068	-61	187	89	740	37051	740	68907107
731	258	3973	-309	-985	-9067	-61	187	89	741	37080	741	68907113
716	264	3979	-310	-984	-9091	-54	190	88	742	37174	742	68907113
699	273	3977	-309	-978	-9090	-54	190	88	743	37202	743	68907113
692	267	3947	-310	-982	-9115	-54	190	88	744	37231	744	68907120
699	264	3972	-312	-982	-9082	-51	195	91	745	37325	745	68907121
693	257	3977	-309	-975	-9064	-51	195	91	746	37352	746	68907127
709	239	3978	-310	-981	-9070	-51	195	91	747	37381	747	68907127
703	252	3968	-310	-976	-9053	-51	197	89	748	37475	748	68907128
707	251	3968	-309	-976	-9069	-51	197	89	749	37502	749	68907131
714	253	3997	-307	-982	-9068	-51	197	89	750	37531	750	68907132
712	256	4006	-306	-976	-9072	-43	201	89	751	37625	751	68907139
688	257	3995	-308	-978	-9040	-43	201	89	752	37652	752	68907140
696	265	3981	-309	-973	-9065	-43	201	89	753	37681	753	68907142
715	255	3965	-309	-975	-9060	-46	204	88	754	37775	754	68907145
711	247	3982	-312	-980	-9091	-46	204	88	755	37802	755	68907146
696	249	3989	-305	-979	-9080	-46	204	88	756	37831	756	68907152
689	254	3987	-304	-979	-9042	-35	207	93	757	37925	757	68907152
691	257	3996	-307	-979	-9074	-35	207	93	758	37952	758	68907158
706	264	3970	-311	-975	-9063	-35	207	93	759	37981	759	68907158
692	273	3993	-307	-982	-9073	-41	207	95	760	38069	760	68907158
697	265	3997	-307	-973	-9066	-41	207	95	761	38080	761	68907162
689	261	3974	-304	-978	-9079	-41	207	95	762	38198	762	68907162
692	261	3970	-307	-983	-9066	-41	207	95	763	38316	763	68907169
690	252	3995	-310	-985	-9062	-40	206	94	764	38410	764	68907169
692	257	3965	-309	-984	-9036	-40	206	94	765	38420	765	68907169
704	261	3967	-307	-987	-9058	-40	206	94	766	38538	766	68907173
706	255	3982	-309	-981	-9062	-40	206	94	767	38656	767	68907173
705	257	3964	-310	-978	-9083	-31	215	95	768	38750	768	68907180
707	276	4007	-315	-984	-9107	-31	215	95	769	38760	769	68907180
708	256	3979	-313	-982	-9079	-31	215	95	770	38878	770	68907181
703	264	3957	-311	-980	-9080	-31	215	95	771	38996	771	68907184
695	265	3985	-312	-980	-9044	-28	222	98	772	39090	772	68907185
705	265	3998	-309	-981	-9053	-28	222	98	773	39100	773	68907218
695	267	3998	-308	-977	-9056	-28	222	98	774	39218	774	68907218
699	262	3981	-313	-980	-9102	-26	218	98	775	39319	775	68907219
709	246	3980	-315	-976	-9102	-26	218	98	776	39370	776	68907222
725	245	3989	-313	-980	-9126	-26	218	98	777	39399	777	68907222
703	254	3981	-310	-979	-9073	-26	218	98	778	39517	778	68907223
699	258	4010	-310	-974	-9051	-20	228	94	779	39628	779	68907223
708	254	3995	-310	-981	-9111	-20	228	94	780	39657	780	68907223
719	245	3965	-309	-980	-9089	-20	228	94	781	39666	781	68907225
725	238	3975	-310	-985	-9094	-20	228	94	782	39695	782	68907226
706	227	3982	-307	-986	-9091	-19	223	101	783	39789	783	68907228
711	241	3979	-308	-977	-9065	-19	223	101	784	39817	784	68907228
715	249	3978	-308	-981	-9079	-19	223	101	785	39846	785	68907228
714	257	3977	-304	-985	-9053	-13	231	101	786	39939	786	68907230
716	252	3990	-310	-982	-9091	-13	231	101	787	39967	787	68907231
700	251	3963	-306	-982	-9099	-13	231	101	788	39996	788	68907233
705	251	3957	-307	-976	-9101	-6	232	100	789	40090	789	68907233
719	255	3977	-309	-978	-9086	-6	232	100	790	40117	790	68907239
716	251	3990	-309	-980	-9076	-6	232	100	791	40146	791	68907239
725	255	3962	-308	-976	-9068	0	230	104	792	40240	792	68907239
730	261	3957	-309	-983	-9086	0	230	104	793	40267	793	68907245
708	242	3998	-313	-978	-9085	0	230	104	794	40296	794	68907246
712	239	3999	-312	-975	-9090	-1	227	101	795	40390	795	68907251
708	251	3981	-313	-979	-9108	-1	227	101	796	40418	796	68907253
707	250	4007	-311	-982	-9111	-1	227	101	797	40446	797	68907253
702	247	3988	-311	-980	-9098	3	231	101	798	40540	798	68907259
717	244	3988	-313	-981	-9089	3	231	101	799	40567	799	68907262
721	265	3975	-309	-980	-9084	3	231	101	800	40596	800	68907265
735	260	3987	-307	-985	-9068	4	236	94	801	40690	801	68907266
730	262	3994	-308	-982	-9092	4	236	94	802	40717	802	68907267
726	243	4005	-307	-977	-9091	4	236	94	803	40746	803	68907272
722	230	4010	-312	-985	-9076	11	233	99	804	40840	804	68907272
706	230	3995	-317	-983	-9062	11	233	99	805	40868	805	68907279
709	255	3945	-308	-982	-9112	11	233	99	806	40897	806	68907279
720	250	3929	-305	-979	-9109	14	228	106	807	40991	807	68907281
736	236	3942	-308	-976	-9102	14	228	106	808	41019	808	68907283
718	239	3971	-314	-985	-9085	14	228	106	809	41047	809	68907284
704	243	3993	-313	-977	-9067	17	233	97	810	41141	810	68907290
725	231	4000	-307	-969	-9080	17	233	97	811	41168	811	68907291
720	238	4022	-310	-974	-9082	17	233	97	812	41197	812	68907291
725	222	4049	-310	-973	-9096	18	236	98	813	41291	813	68907298
731	232	4022	-310	-974	-9118	18	236	98	814	41318	814	68907298
712	247	3982	-313	-982	-9097	18	236	98	815	41347	815	68907304
724	246	3971	-310	-978	-9107	24	238	104	816	41441	816	68907304
727	258	3947	-305	-979	-9094	24	238	104	817	41468	817	68907305
719	252	3915	-308	-976	-9086	24	238	104	818	41497	818	68907311
714	252	3927	-308	-981	-9107	32	230	106	819	41591	819	68907312
719	252	3966	-311	-984	-9105	32	230	106	820	41618	820	68907315
726	262	3998	-307	-983	-9093	32	230	106	821	41647	821	68907318
725	259	4023	-307	-981	-9079	34	236	102	822	41741	822	68907322
732	254	4040	-310	-978	-9046	34	236	102	823	41768	823	68907323
727	260	4013	-312	-976	-9082	34	236	102	824	41797	824	68907323
713	245	3991	-312	-982	-9108	37	237	107	825	41891	825	68907332
705	231	3987	-313	-981	-9119	37	237	107	826	41919	826	68907333
728	236	3956	-305	-983	-9094	37	237	107	827	41947	827	68907336
729	242	3948	-304	-983	-9106	39	235	107	828	42041	828	68907337
741	257	3937	-305	-981	-9080	39	235	107	829	42069	829	68907337
748	256	3990	-312	-980	-9054	39	235	107	830	42097	830	68907342
740	257	3990	-309	-978	-9105	50	230	104	831	42191	831	68907343
729	267	4001	-307	-968	-9067	50	230	104	832	42219	832	68907350
716	261	4031	-312	-980	-9079	50	230	104	833	42248	833	68907351
712	237	3998	-312	-975	-9089	52	232	106	834	42342	834	68907351
714	239	4003	-313	-976	-9085	52	232	106	835	42369	835	68907354
732	245	3968	-306	-978	-9062	52	232	106	836	42398	836	68907355
723	246	3950	-308	-976	-9093	57	233	105	837	42492	837	68907362
726	235	3956	-310	-977	-9087	57	233	105	838	42519	838	68907362
712	237	3969	-312	-973	-9108	57	233	105	839	42548	839	68907362
728	242	3969	-313	-972	-9126	60	228	106	840	42642	840	68907369
734	228	3988	-313	-979	-9083	60	228	106	841	42669	841	68907370
726	237	3993	-306	-981	-9088	60	228	106	842	42698	842	68907375
736	249	3994	-305	-987	-9093	66	228	106	843	42792	843	68907376
742	232	3997	-305	-983	-9096	66	228	106	844	42819	844	68907376
726	245	4003	-308	-975	-9133	66	228	106	845	42848	845	68907382
729	242	3991	-307	-975	-9119	68	224	110	846	42942	846	68907382
729	249	3979	-310	-977	-9097	68	224	110	847	42970	847	68907388
749	249	3994	-309	-978	-9069	68	224	110	848	42999	848	68907389
754	249	3983	-311	-984	-9084	71	223	103	849	43093	849	68907390
748	258	3970	-311	-975	-9082	71	223	103	850	43120	850	68907394
732	256	4007	-309	-981	-9087	71	223	103	851	43149	851	68907395
736	255	4007	-309	-979	-9092	72	224	106	852	43243	852	68907400
742	255	3994	-310	-980	-9098	72	224	106	853	43270	853	68907402
718	232	3980	-311	-986	-9097	72	224	106	854	43299	854	68907408
730	238	3992	-312	-978	-9072	83	223	111	855	43393	855	68907408
726	253	3988	-310	-983	-9100	83	223	111	856	43420	856	68907409
724	254	3992	-307	-983	-9096	83	223	111	857	43449	857	68907414
716	247	3953	-309	-979	-9087	83	213	113	858	43543	858	68907415
710	262	3950	-308	-981	-9098	83	213	113	859	43570	859	68907422
729	261	3983	-310	-981	-9091	83	213	113	860	43599	860	68907422
740	261	3988	-308	-980	-9072	87	215	109	861	43693	861	68907422
740	257	4012	-309	-981	-9098	87	215	109	862	43720	862	68907425
722	262	3995	-313	-984	-9102	87	215	109	863	43749	863	68907426
731	245	3980	-315	-983	-9084	92	214	114	864	43843	864	68907433
740	252	3997	-313	-985	-9132	92	214	114	865	43871	865	68907434
731	243	3971	-309	-975	-9105	92	214	114	866	43900	866	68907434
735	236	3964	-311	-979	-9076	97	213	115	867	43993	867	68907440
747	235	3974	-313	-985	-9089	97	213	115	868	44020	868	68907440
735	252	3971	-309	-981	-9115	97	213	115	869	44049	869	68907446
743	258	3985	-309	-984	-9083	97	207	117	870	44143	870	68907447
736	257	3990	-309	-982	-9085	97	207	117	871	44170	871	68907447
740	243	3984	-306	-980	-9108	97	207	117	872	44199	872	68907453
748	252	3985	-307	-987	-9069	109	205	115	873	44293	873	68907453
742	247	3987	-309	-981	-9080	109	205	115	874	44320	874	68907462
752	260	3976	-309	-984	-9110	109	205	115	875	44349	875	68907463
740	268	3977	-308	-983	-9102	109	203	117	876	44443	876	68907464
738	264	3975	-306	-977	-9108	109	203	117	877	44470	877	68907465
744	255	3978	-317	-982	-9091	109	203	117	878	44499	878	68907465
727	249	3974	-315	-979	-9054	110	196	118	879	44593	879	68907472
729	257	3992	-311	-975	-9063	110	196	118	880	44620	880	68907473
731	270	4000	-307	-978	-9118	110	196	118	881	44649	881	68907473
737	267	4023	-307	-977	-9118	114	200	126	882	44743	882	68907481
731	269	4001	-310	-981	-9107	114	200	126	883	44770	883	68907482
741	242	3981	-309	-975	-9110	114	200	126	884	44799	884	68907485
747	242	3986	-303	-977	-9089	125	195	121	885	44893	885	68907486
740	230	3948	-301	-977	-9066	125	195	121	886	44921	886	68907493
756	255	3950	-303	-972	-9067	125	195	121	887	44949	887	68907494
749	255	3968	-306	-981	-9083	118	188	124	888	45043	888	68907495
736	261	3994	-314	-978	-9097	118	188	124	889	45071	889	68907496
737	258	3980	-309	-978	-9065	118	188	124	890	45094	890	68907497
741	264	3998	-308	-980	-9080	123	183	127	891	45188	891	68907504
734	279	3994	-308	-981	-9070	123	183	127	892	45221	892	68907504
756	260	4002	-311	-984	-9070	123	183	127	893	45250	893	68907504
744	256	3962	-311	-983	-9090	117	181	125	894	45344	894	68907511
736	271	3973	-307	-980	-9094	117	181	125	895	45371	895	68907512
732	242	4014	-316	-984	-9121	117	181	125	896	45400	896	68907517
737	247	4012	-310	-986	-9101	126	178	132	897	45494	897	68907518
752	235	3990	-312	-983	-9078	126	178	132	898	45521	898	68907518
752	233	4005	-310	-971	-9090	126	178	132	899	45550	899	68907524
738	249	3990	-303	-968	-9141	128	172	126	900	45644	900	68907524
725	249	4002	-304	-974	-9103	128	172	126	901	45671	901	68907531
753	250	3988	-306	-986	-9099	128	172	126	902	45700	902	68907532
754	252	3986	-307	-982	-9094	124	166	142	903	45794	903	68907535
736	248	4008	-307	-982	-9050	124	166	142	904	45821	904	68907536
741	262	3980	-312	-977	-9062	124	166	142	905	45850	905	68907536
735	261	3984	-311	-977	-9071	129	159	131	906	45944	906	68907542
743	255	3980	-311	-984	-9081	129	159	131	907	45972	907	68907543
760	241	3978	-314	-981	-9092	129	159	131	908	46001	908	68907543
748	257	3988	-315	-980	-9094	126	162	144	909	46095	909	68907551
748	258	3981	-312	-984	-9105	126	162	144	910	46122	910	68907552
730	250	3966	-317	-978	-9063	126	162	144	911	46151	911	68907556
738	252	3970	-316	-977	-9054	135	151	135	912	46245	912	68907557
746	256	3958	-313	-983	-9058	135	151	135	913	46273	913	68907563
742	261	3948	-304	-978	-9109	135	151	135	914	46301	914	68907563
742	257	3960	-305	-982	-9105	128	148	150	915	46395	915	68907563
746	248	3971	-308	-984	-9095	128	148	150	916	46423	916	68907570
745	248	3961	-307	-984	-9067	128	148	150	917	46451	917	68907570
745	256	3969	-305	-983	-9077	134	146	138	918	46545	918	68907574
764	274	3983	-308	-979	-9084	134	146	138	919	46573	919	68907574
738	268	3999	-307	-979	-9071	134	146	138	920	46601	920	68907574
737	267	4010	-312	-976	-9074	126	140	150	921	46695	921	68907581
735	264	3975	-316	-974	-9106	126	140	150	922	46723	922	68907582
764	260	3984	-310	-986	-9068	126	140	150	923	46752	923	68907589
761	267	3972	-307	-982	-9081	130	132	144	924	46846	924	68907590
741	281	3987	-311	-974	-9106	130	132	144	925	46873	925	68907591
731	266	3978	-309	-981	-9104	130	132	144	926	46902	926	68907595
744	259	3990	-313	-977	-9083	124	136	150	927	46996	927	68907596
754	263	3979	-313	-980	-9105	124	136	150	928	47024	928	68907603
752	252	3988	-302	-978	-9072	124	136	150	929	47052	929	68907604
748	261	3967	-301	-974	-9042	130	118	154	930	47146	930	68907605
756	267	3971	-306	-980	-9057	130	118	154	931	47173	931	68907606
732	270	3973	-310	-976	-9078	130	118	154	932	47202	932	68907608
741	259	3978	-308	-981	-9060	114	116	154	933	47296	933	68907614
740	256	3973	-306	-981	-9107	114	116	154	934	47324	934	68907614
761	269	3974	-308	-970	-9095	114	116	154	935	47352	935	68907615
762	274	3990	-306	-978	-9070	118	114	158	936	47446	936	68907621
759	261	3961	-307	-982	-9068	118	114	158	937	47473	937	68907622
740	268	3984	-305	-976	-9097	118	114	158	938	47502	938	68907627
756	262	3986	-306	-981	-9099	111	113	147	939	47596	939	68907628
736	274	4001	-308	-979	-9138	111	113	147	940	47623	940	68907628
760	267	3985	-310	-983	-9107	111	113	147	941	47652	941	68907634
756	267	3984	-310	-979	-9082	111	109	159	942	47746	942	68907634
743	265	3984	-308	-978	-9077	111	109	159	943	47774	943	68907640
748	278	3977	-308	-982	-9067	111	109	159	944	47803	944	68907641
746	277	3985	-308	-977	-9095	97	103	149	945	47897	945	68907647
753	298	3983	-305	-974	-9089	97	103	149	946	47924	946	68907647
741	292	3981	-310	-984	-9078	97	103	149	947	47953	947	68907647
751	286	3976	-309	-975	-9049	102	100	158	948	48047	948	68907653
738	269	3973	-309	-976	-9086	102	100	158	949	48075	949	68907653
753	291	3975	-311	-979	-9068	102	100	158	950	48103	950	68907663
749	282	3986	-311	-976	-9084	90	96	144	951	48197	951	68907664
738	263	3991	-309	-978	-9110	90	96	144	952	48225	952	68907665
738	267	3985	-311	-982	-9069	90	96	144	953	48253	953	68907668
733	253	3971	-310	-978	-9099	92	104	152	954	48347	954	68907668
737	258	3984	-309	-988	-9063	92	104	152	955	48374	955	68907671
760	250	3997	-312	-975	-9043	92	104	152	956	48403	956	68907673
737	250	3997	-307	-978	-9076	88	88	138	957	48497	957	68907673
739	255	4013	-303	-981	-9080	88	88	138	958	48524	958	68907679
733	292	3970	-307	-979	-9079	88	88	138	959	48553	959	68907680
736	283	3984	-306	-985	-9094	85	95	149	960	48647	960	68907708
739	272	3953	-306	-984	-9075	85	95	149	961	48674	961	68907708
732	259	3984	-309	-982	-9045	85	95	149	962	48698	962	68907708
735	265	3984	-306	-980	-9093	83	81	127	963	48792	963	68907710
729	270	3977	-305	-977	-9079	83	81	127	964	48825	964	68907711
741	281	3987	-310	-984	-9096	83	81	127	965	48854	965	68907713
737	290	3993	-314	-985	-9103	73	95	137	966	48948	966	68907714
745	283	3981	-312	-983	-9084	73	95	137	967	48976	967	68907714
751	258	3978	-312	-984	-9039	73	95	137	968	49005	968	68907719
743	261	3994	-309	-974	-9071	70	76	128	969	49099	969	68907723
744	264	3987	-306	-970	-9060	70	76	128	970	49127	970	68907724
754	273	3981	-313	-980	-9107	70	76	128	971	49155	971	68907725
760	269	3971	-317	-981	-9105	75	87	135	972	49249	972	68907725
758	271	3985	-315	-985	-9094	75	87	135	973	49276	973	68907726
755	288	3991	-306	-974	-9075	75	87	135	974	49305	974	68907727
748	276	3975	-304	-970	-9073	63	79	125	975	49399	975	68907727
749	266	3975	-308	-975	-9056	63	79	125	976	49426	976	68907728
739	285	3990	-312	-977	-9095	63	79	125	977	49455	977	68907733
754	281	3999	-314	-975	-9100	73	75	133	978	49549	978	68907733
751	270	3980	-309	-983	-9107	73	75	133	979	49576	979	68907734
759	282	3980	-307	-973	-9096	73	75	133	980	49605	980	68907738
745	278	3982	-312	-982	-9071	71	71	123	981	49699	981	68907738
767	268	3982	-311	-985	-9088	71	71	123	982	49726	982	68907744
728	271	3970	-307	-981	-9099	71	71	123	983	49755	983	68907744
715	283	3972	-309	-982	-9102	65	73	125	984	49849	984	68907745
745	291	3969	-309	-979	-9079	65	73	125	985	49876	985	68907750
753	267	3969	-311	-976	-9082	65	73	125	986	49905	986	68907751
749	266	3952	-310	-984	-9059	58	70	122	987	49999	987	68907756
744	276	3966	-311	-978	-9077	58	70	122	988	50026	988	68907757
730	299	3967	-307	-976	-9086	58	70	122	989	50055	989	68907757
739	294	3976	-309	-983	-9097	57	63	121	990	50149	990	68907763
736	294	3978	-313	-980	-9103	57	63	121	991	50177	991	68907763
733	294	3983	-310	-981	-9088	57	63	121	992	50205	992	68907770
746	298	3973	-311	-978	-9070	52	68	118	993	50299	993	68907770
741	302	3996	-308	-981	-9066	52	68	118	994	50326	994	68907771
740	286	3983	-309	-979	-9089	52	68	118	995	50355	995	68907776
733	285	3982	-309	-976	-9083	59	65	117	996	50449	996	68907777
756	281	3971	-312	-981	-9103	59	65	117	997	50476	997	68907783
743	290	3988	-310	-979	-9085	59	65	117	998	50505	998	68907783
748	286	3979	-305	-974	-9061	53	61	123	999	50599	999	68907784
754	274	3963	-310	-974	-9079	53	61	123	1000	50627	1000	68907789
734	276	3981	-308	-974	-9070	53	61	123	1001	50655	1001	68907789
734	269	3989	-307	-978	-9068	54	58	118	1002	50749	1002	68907795
733	278	3982	-308	-984	-9117	54	58	118	1003	50776	1003	68907796
737	296	3973	-304	-978	-9108	54	58	118	1004	50805	1004	68907796
734	291	3984	-304	-983	-9072	44	68	114	1005	50899	1005	68907803
723	294	3965	-307	-980	-9066	44	68	114	1006	50926	1006	68907804
721	272	3976	-309	-977	-9086	44	68	114	1007	50955	1007	68907807
735	286	3983	-305	-979	-9084	44	54	110	1008	51043	1008	68907808
745	292	3966	-310	-974	-9100	44	54	110	1009	51054	1009	68907814
745	280	3954	-318	-982	-9119	44	54	110	1010	51172	1010	68907814
739	275	3963	-318	-982	-9101	44	54	110	1011	51290	1011	68907815
734	285	3962	-314	-980	-9088	39	59	115	1012	51384	1012	68907818
738	289	3969	-311	-981	-9080	39	59	115	1013	51394	1013	68907819
745	278	3964	-307	-985	-9076	39	59	115	1014	51512	1014	68907826
759	272	3967	-305	-982	-9060	39	59	115	1015	51630	1015	68907827
740	283	3982	-316	-982	-9091	38	52	104	1016	51731	1016	68907827
744	282	3975	-313	-979	-9053	38	52	104	1017	51781	1017	68907833
735	270	3944	-312	-981	-9062	38	52	104	1018	51810	1018	68907833
730	287	3966	-312	-980	-9075	38	52	104	1019	51928	1019	68907840
745	285	3970	-311	-974	-9067	32	58	106	1020	52039	1020	68907840
728	292	3991	-308	-980	-9115	32	58	106	1021	52068	1021	68907840
732	286	3985	-308	-977	-9098	32	58	106	1022	52186	1022	68907844
744	290	3958	-306	-975	-9102	32	58	106	1023	52304	1023	68907844
757	284	3958	-305	-981	-9088	30	52	100	1024	52398	1024	68907851
743	287	3974	-307	-977	-9063	30	52	100	1025	52408	1025	68907852
752	285	3970	-306	-974	-9077	30	52	100	1026	52526	1026	68907852
737	285	3963	-308	-979	-9087	30	52	100	1027	52644	1027	68907858
722	281	3963	-309	-977	-9065	24	52	100	1028	52752	1028	68907858
736	291	3971	-307	-974	-9091	24	52	100	1029	52781	1029	68907865
732	288	3989	-308	-985	-9091	24	52	100	1030	52781	1030	68907877
725	281	3977	-306	-975	-9099	29	55	99	1031	52781	1031	68907877
738	281	3966	-306	-977	-9068	29	55	99	1032	52791	1032	68907878
737	296	3979	-303	-971	-9064	29	55	99	1033	52801	1033	68907878
730	312	3947	-304	-975	-9082	22	46	94	1034	52806	1034	68907879
745	308	3963	-308	-981	-9053	22	46	94	1035	52816	1035	68907879
738	298	3957	-309	-982	-9048	22	46	94	1036	52820	1036	68907884
738	286	3975	-309	-982	-9076	18	54	94	1037	52825	1037	68907885
727	287	3978	-307	-981	-9056	18	54	94	1038	52836	1038	68907885
721	303	3998	-307	-975	-9075	18	54	94	1039	52839	1039	68907891
717	300	3969	-311	-982	-9105	17	51	87	1040	52844	1040	68907891
731	301	3953	-310	-979	-9083	17	51	87	1041	52855	1041	68907896
753	297	3983	-311	-979	-9107	17	51	87	1042	52859	1042	68907896
728	288	3975	-310	-986	-9059	14	48	90	1043	52864	1043	68907897
723	275	3997	-311	-976	-9050	14	48	90	1044	52874	1044	68907904
722	276	3982	-311	-972	-9081	14	48	90	1045	52878	1045	68907904
727	296	3992	-309	-978	-9093	13	51	85	1046	52883	1046	68907910
742	287	3984	-311	-974	-9088	13	51	85	1047	52893	1047	68907910
738	281	3986	-310	-978	-9083	13	51	85	1048	52897	1048	68907910
734	296	3989	-305	-972	-9084	12	52	90	1049	52902	1049	68907916
727	298	3972	-305	-972	-9087	12	52	90	1050	52912	1050	68907917
720	290	3967	-304	-976	-9075	12	52	90	1051	52916	1051	68907924
696	283	3974	-306	-973	-9062	9	51	81	1052	52921	1052	68907924
701	287	3967	-303	-975	-9068	9	51	81	1053	52932	1053	68907925
707	289	3972	-303	-981	-9102	9	51	81	1054	52935	1054	68907928
726	302	3979	-310	-976	-9070	6	52	82	1055	52940	1055	68907928
722	292	3980	-310	-983	-9061	6	52	82	1056	52951	1056	68907935
717	294	3973	-311	-982	-9049	6	52	82	1057	52955	1057	68907936
726	291	3971	-311	-973	-9075	7	55	77	1058	52960	1058	68907936
721	297	3990	-311	-978	-9092	7	55	77	1059	52970	1059	68907943
723	291	3978	-309	-972	-9090	7	55	77	1060	52974	1060	68907943
714	277	3992	-315	-981	-9045	5	51	83	1061	52979	1061	68907949
730	282	3984	-312	-983	-9079	5	51	83	1062	52990	1062	68907949
733	293	3998	-310	-978	-9073	5	51	83	1063	52993	1063	68907956
717	284	3965	-311	-977	-9069	0	56	80	1064	52998	1064	68907956
706	289	3963	-309	-975	-9114	0	56	80	1065	53009	1065	68907957
709	293	3969	-307	-971	-9099	0	56	80	1066	53013	1066	68907960
718	303	3968	-307	-979	-9110	4	48	78	1067	53017	1067	68907960
716	291	3984	-305	-980	-9119	4	48	78	1068	53028	1068	68907967
721	298	3994	-304	-983	-9084	4	48	78	1069	53032	1069	68907968
708	289	3994	-310	-978	-9076	0	54	70	1070	53037	1070	68907968
718	289	3970	-310	-977	-9079	0	54	70	1071	53048	1071	68907975
726	286	3982	-306	-982	-9083	0	54	70	1072	53051	1072	68907975
710	305	3981	-307	-973	-9094	-5	47	79	1073	53056	1073	68907981
726	294	3994	-308	-976	-9102	-5	47	79	1074	53067	1074	68907982
723	291	4001	-312	-979	-9078	-5	47	79	1075	53071	1075	68907982
703	273	3960	-312	-977	-9055	-12	60	76	1076	53076	1076	68907988
709	275	3983	-312	-980	-9047	-12	60	76	1077	53086	1077	68907988
728	273	3993	-308	-982	-9052	-12	60	76	1078	53090	1078	68907995
714	296	3970	-308	-981	-9081	-6	52	74	1079	53095	1079	68907996
711	304	3980	-309	-982	-9080	-6	52	74	1080	53105	1080	68907996
731	311	3995	-308	-982	-9065	-6	52	74	1081	53109	1081	68907999
734	298	3996	-309	-978	-9085	-10	58	78	1082	53114	1082	68908001
720	301	3989	-305	-983	-9071	-10	58	78	1083	53125	1083	68908006
709	291	3979	-308	-979	-9077	-10	58	78	1084	53128	1084	68908007
713	289	3962	-312	-986	-9087	-15	53	77	1085	53133	1085	68908007
716	284	3970	-310	-986	-9080	-15	53	77	1086	53144	1086	68908014
699	293	3966	-307	-979	-9089	-15	53	77	1087	53147	1087	68908014
717	296	3988	-307	-989	-9070	-14	60	78	1088	53152	1088	68908020
707	302	3989	-308	-985	-9067	-14	60	78	1089	53163	1089	68908020
709	296	3981	-313	-979	-9083	-14	60	78	1090	53167	1090	68908021
707	291	3994	-308	-985	-9077	-17	61	71	1091	53172	1091	68908026
702	280	3993	-305	-979	-9078	-17	61	71	1092	53182	1092	68908027
715	275	3993	-307	-973	-9105	-17	61	71	1093	53186	1093	68908033
712	296	3978	-307	-978	-9063	-15	59	79	1094	53191	1094	68908033
721	300	3971	-312	-976	-9030	-15	59	79	1095	53202	1095	68908039
723	294	3973	-313	-984	-9061	-15	59	79	1096	53205	1096	68908039
707	289	3989	-309	-970	-9095	-20	62	80	1097	53210	1097	68908039
713	282	3996	-307	-975	-9068	-20	62	80	1098	53221	1098	68908046
700	288	3974	-309	-983	-9067	-20	62	80	1099	53224	1099	68908047
708	287	3972	-309	-976	-9079	-17	59	75	1100	53229	1100	68908053
719	282	3974	-311	-979	-9069	-17	59	75	1101	53240	1101	68908053
714	289	3965	-311	-983	-9083	-17	59	75	1102	53244	1102	68908054
721	288	3969	-313	-980	-9075	-26	62	72	1103	53249	1103	68908059
709	293	3987	-311	-986	-9093	-26	62	72	1104	53259	1104	68908061
717	278	4009	-308	-984	-9117	-26	62	72	1105	53263	1105	68908066
711	302	4003	-309	-981	-9096	-34	70	74	1106	53268	1106	68908067
718	298	4007	-306	-979	-9059	-34	70	74	1107	53278	1107	68908068
718	299	3979	-306	-976	-9082	-34	70	74	1108	53282	1108	68908072
698	286	3986	-306	-983	-9076	-31	67	73	1109	53287	1109	68908073
697	284	3983	-306	-981	-9068	-31	67	73	1110	53297	1110	68908078
708	282	3977	-305	-978	-9061	-31	67	73	1111	53301	1111	68908079
735	295	3994	-306	-980	-9099	-31	67	81	1112	53306	1112	68908081
705	289	3975	-306	-974	-9088	-31	67	81	1113	53317	1113	68908085
696	286	3976	-314	-974	-9066	-31	67	81	1114	53321	1114	68908085
702	287	3984	-313	-981	-9080	-38	68	76	1115	53326	1115	68908089
699	272	3961	-311	-977	-9094	-38	68	76	1116	53336	1116	68908089
704	278	3971	-309	-977	-9109	-38	68	76	1117	53448	1117	68908090
705	296	3971	-306	-975	-9079	-38	68	76	1118	53566	1118	68908097
709	284	3991	-311	-974	-9069	-34	70	78	1119	53660	1119	68908097
698	282	3988	-315	-978	-9073	-34	70	78	1120	53670	1120	68908100
700	279	4003	-314	-980	-9068	-34	70	78	1121	53788	1121	68908101
697	272	4007	-310	-974	-9044	-34	70	78	1122	53906	1122	68908110
697	287	3999	-308	-974	-9061	-40	70	72	1123	54005	1123	68908111
700	287	3990	-314	-978	-9110	-40	70	72	1124	54034	1124	68908111
701	288	3984	-309	-981	-9094	-40	70	72	1125	54043	1125	68908114
702	277	3979	-306	-980	-9078	-40	70	72	1126	54072	1126	68908115
714	278	3968	-308	-975	-9075	-48	68	80	1127	54166	1127	68908122
710	291	3976	-308	-980	-9071	-48	68	80	1128	54193	1128	68908124
705	281	3986	-310	-980	-9087	-48	68	80	1129	54222	1129	68908125
718	278	3976	-308	-975	-9109	-48	74	78	1130	54316	1130	68908130
713	281	3979	-306	-982	-9080	-48	74	78	1131	54343	1131	68908134
711	293	3985	-303	-977	-9096	-48	74	78	1132	54372	1132	68908135
715	291	3975	-303	-974	-9057	-49	87	77	1133	54466	1133	68908136
716	298	3983	-305	-980	-9038	-49	87	77	1134	54493	1134	68908136
707	276	3980	-311	-979	-9022	-49	87	77	1135	54522	1135	68908142
705	278	3988	-308	-984	-9065	-51	77	79	1136	54616	1136	68908142
704	284	3980	-306	-982	-9099	-51	77	79	1137	54643	1137	68908149
702	302	3952	-303	-975	-9077	-51	77	79	1138	54672	1138	68908149
694	297	3945	-306	-981	-9066	-53	83	81	1139	54766	1139	68908151
688	287	3949	-314	-977	-9049	-53	83	81	1140	54793	1140	68908153
712	277	3955	-314	-980	-9071	-53	83	81	1141	54822	1141	68908153
714	284	3969	-309	-977	-9099	-57	85	77	1142	54916	1142	68908160
709	282	3959	-309	-972	-9087	-57	85	77	1143	54943	1143	68908161
686	277	3971	-313	-977	-9075	-57	85	77	1144	54972	1144	68908161
686	277	4015	-312	-970	-9054	-55	85	77	1145	55066	1145	68908168
700	281	4015	-312	-973	-9074	-55	85	77	1146	55093	1146	68908168
708	275	3975	-310	-982	-9072	-55	85	77	1147	55122	1147	68908174
703	270	3984	-309	-982	-9071	-60	92	78	1148	55216	1148	68908175
709	266	3991	-310	-982	-9085	-60	92	78	1149	55244	1149	68908175
706	264	3989	-308	-977	-9076	-60	92	78	1150	55273	1150	68908180
711	281	3991	-302	-973	-9073	-58	94	78	1151	55367	1151	68908182
711	292	4000	-305	-978	-9081	-58	94	78	1152	55395	1152	68908187
712	287	3972	-309	-975	-9069	-58	94	78	1153	55424	1153	68908187
717	281	3956	-308	-976	-9075	-62	94	76	1154	55517	1154	68908193
705	276	3966	-306	-982	-9087	-62	94	76	1155	55544	1155	68908193
696	276	3981	-304	-978	-9098	-62	94	76	1156	55573	1156	68908194
699	275	3972	-302	-981	-9078	-66	98	76	1157	55667	1157	68908202
687	288	3975	-305	-980	-9061	-66	98	76	1158	55695	1158	68908218
692	291	3984	-307	-982	-9084	-66	98	76	1159	55723	1159	68908221
699	294	3982	-310	-986	-9092	-67	103	79	1160	55817	1160	68908224
700	290	3968	-311	-986	-9100	-67	103	79	1161	55844	1161	68908224
705	268	3991	-308	-983	-9093	-67	103	79	1162	55873	1162	68908224
721	261	3991	-310	-981	-9067	-67	105	83	1163	55967	1163	68908224
719	268	3980	-310	-983	-9088	-67	105	83	1164	55995	1164	68908224
696	291	3973	-309	-975	-9067	-67	105	83	1165	56023	1165	68908225
718	296	4013	-309	-976	-9064	-65	109	79	1166	56117	1166	68908225
717	287	4009	-312	-974	-9092	-65	109	79	1167	56144	1167	68908225
710	269	3994	-314	-986	-9074	-65	109	79	1168	56173	1168	68908225
715	265	3992	-316	-980	-9079	-72	106	78	1169	56267	1169	68908231
704	250	3977	-312	-975	-9082	-72	106	78	1170	56294	1170	68908232
687	269	3995	-307	-973	-9081	-72	106	78	1171	56323	1171	68908232
675	279	3984	-309	-978	-9050	-67	117	83	1172	56417	1172	68908239
689	274	4004	-311	-979	-9075	-67	117	83	1173	56445	1173	68908239
692	237	3995	-315	-985	-9101	-67	117	83	1174	56474	1174	68908245
702	238	3985	-311	-980	-9097	-70	120	82	1175	56567	1175	68908245
704	254	3986	-307	-977	-9082	-70	120	82	1176	56595	1176	68908246
689	274	3978	-296	-968	-9084	-70	120	82	1177	56624	1177	68908252
690	285	3975	-302	-972	-9067	-67	125	83	1178	56718	1178	68908252
696	294	3981	-308	-981	-9055	-67	125	83	1179	56745	1179	68908258
686	252	3991	-311	-979	-9092	-67	125	83	1180	56774	1180	68908258
693	265	3981	-308	-977	-9097	-74	120	84	1181	56868	1181	68908259
702	286	3991	-304	-973	-9100	-74	120	84	1182	56895	1182	68908264
688	273	3994	-308	-977	-9086	-74	120	84	1183	56924	1183	68908265
679	266	3985	-311	-988	-9062	-74	130	84	1184	57018	1184	68908271
693	269	3967	-309	-985	-9059	-74	130	84	1185	57045	1185	68908272
687	278	3965	-309	-984	-9060	-74	130	84	1186	57074	1186	68908278
694	273	3965	-312	-982	-9072	-71	133	83	1187	57168	1187	68908278
707	258	3999	-309	-978	-9092	-71	133	83	1188	57195	1188	68908278
713	265	3979	-312	-989	-9067	-71	133	83	1189	57224	1189	68908284
698	276	3992	-310	-983	-9071	-75	139	83	1190	57318	1190	68908284
693	280	4004	-311	-975	-9046	-75	139	83	1191	57345	1191	68908292
709	274	4003	-312	-989	-9066	-75	139	83	1192	57374	1192	68908292
710	260	3983	-313	-985	-9090	-68	134	78	1193	57468	1193	68908293
698	257	3972	-314	-981	-9097	-68	134	78	1194	57496	1194	68908295
695	261	3996	-310	-975	-9095	-68	134	78	1195	57519	1195	68908296
695	273	3974	-309	-972	-9099	-77	143	87	1196	57613	1196	68908301
682	270	3959	-309	-977	-9082	-77	143	87	1197	57624	1197	68908302
696	281	3967	-314	-978	-9075	-77	143	87	1198	57741	1198	68908302
692	260	3985	-315	-977	-9069	-77	143	87	1199	57859	1199	68908308
696	257	3995	-313	-985	-9072	-75	151	83	1200	57953	1200	68908309
710	258	3984	-309	-983	-9121	-75	151	83	1201	57963	1201	68908311
706	265	3983	-302	-973	-9098	-75	151	83	1202	58081	1202	68908312
698	262	4001	-304	-971	-9102	-75	151	83	1203	58199	1203	68908312
703	276	3989	-302	-983	-9115	-70	148	84	1204	58293	1204	68908319
680	267	3971	-308	-984	-9053	-70	148	84	1205	58303	1205	68908320
700	253	3968	-309	-988	-9076	-70	148	84	1206	58421	1206	68908348
714	241	3971	-304	-990	-9089	-70	148	84	1207	58539	1207	68908348
720	250	3968	-307	-982	-9111	-71	157	87	1208	58632	1208	68908349
716	262	3986	-309	-976	-9090	-71	157	87	1209	58643	1209	68908352
708	267	3992	-306	-979	-9093	-71	157	87	1210	58761	1210	68908353
717	282	3991	-310	-983	-9085	-70	166	80	1211	58862	1211	68908354
704	284	3989	-311	-990	-9100	-70	166	80	1212	58913	1212	68908354
702	271	3999	-313	-986	-9103	-70	166	80	1213	58942	1213	68908355
716	265	3976	-313	-984	-9094	-70	166	80	1214	59060	1214	68908355
713	257	3970	-314	-983	-9111	-66	170	82	1215	59171	1215	68908356
705	256	3982	-307	-972	-9068	-66	170	82	1216	59200	1216	68908358
689	274	3989	-308	-974	-9077	-66	170	82	1217	59209	1217	68908358
690	262	3980	-310	-976	-9104	-66	170	82	1218	59238	1218	68908360
707	249	3951	-312	-984	-9107	-66	170	78	1219	59332	1219	68908361
710	239	3939	-313	-991	-9089	-66	170	78	1220	59360	1220	68908361
706	234	3949	-308	-971	-9083	-66	170	78	1221	59388	1221	68908363
697	253	3973	-305	-970	-9081	-60	172	84	1222	59482	1222	68908364
681	246	3998	-306	-971	-9077	-60	172	84	1223	59509	1223	68908372
687	268	3994	-308	-977	-9076	-60	172	84	1224	59538	1224	68908372
684	251	4004	-311	-986	-9092	-63	183	89	1225	59632	1225	68908372
705	251	3980	-309	-987	-9067	-63	183	89	1226	59659	1226	68908378
700	267	3974	-310	-984	-9097	-63	183	89	1227	59688	1227	68908378
709	271	3976	-308	-984	-9082	-65	183	89	1228	59782	1228	68908384
706	267	3985	-307	-975	-9054	-65	183	89	1229	59809	1229	68908384
695	269	3974	-307	-986	-9057	-65	183	89	1230	59838	1230	68908384
689	268	3982	-302	-982	-9072	-58	184	84	1231	59932	1231	68908391
693	260	3965	-304	-979	-9088	-58	184	84	1232	59959	1232	68908391
711	251	3941	-309	-988	-9087	-58	184	84	1233	59988	1233	68908398
705	261	3949	-308	-976	-9111	-57	193	89	1234	60082	1234	68908398
698	254	3970	-310	-971	-9080	-57	193	89	1235	60110	1235	68908398
704	262	3974	-307	-978	-9045	-57	193	89	1236	60139	1236	68908404
702	268	3981	-311	-974	-9079	-52	194	86	1237	60232	1237	68908404
696	274	3989	-312	-978	-9057	-52	194	86	1238	60260	1238	68908410
717	271	3962	-311	-984	-9090	-52	194	86	1239	60289	1239	68908410
711	267	3971	-315	-978	-9094	-50	190	90	1240	60383	1240	68908411
705	258	3983	-311	-979	-9063	-50	190	90	1241	60410	1241	68908416
691	253	3977	-309	-971	-9054	-50	190	90	1242	60439	1242	68908417
691	254	3974	-311	-979	-9075	-50	200	88	1243	60533	1243	68908423
696	261	3981	-314	-980	-9073	-50	200	88	1244	60560	1244	68908423
713	242	4002	-313	-976	-9079	-50	200	88	1245	60589	1245	68908429
722	239	3979	-312	-978	-9091	-51	201	89	1246	60683	1246	68908431
709	243	3961	-311	-976	-9082	-51	201	89	1247	60710	1247	68908431
694	248	3989	-309	-978	-9054	-51	201	89	1248	60739	1248	68908437
698	239	3990	-307	-982	-9052	-43	203	89	1249	60833	1249	68908437
694	237	3979	-309	-986	-9072	-43	203	89	1250	60860	1250	68908443
701	251	3998	-306	-987	-9075	-43	203	89	1251	60889	1251	68908443
701	237	3977	-302	-985	-9081	-41	211	85	1252	60983	1252	68908443
694	244	3987	-304	-977	-9090	-41	211	85	1253	61011	1253	68908449
699	249	4015	-308	-978	-9063	-41	211	85	1254	61040	1254	68908449
708	249	4024	-306	-976	-9045	-41	217	99	1255	61134	1255	68908455
710	257	3990	-303	-977	-9057	-41	217	99	1256	61162	1256	68908456
708	267	3969	-305	-980	-9086	-41	217	99	1257	61190	1257	68908456
704	274	3970	-308	-974	-9068	-39	209	93	1258	61284	1258	68908463
708	260	3973	-310	-976	-9079	-39	209	93	1259	61312	1259	68908464
707	253	3975	-309	-973	-9105	-39	209	93	1260	61341	1260	68908469
688	254	3982	-309	-971	-9065	-41	217	91	1261	61435	1261	68908472
689	266	3996	-309	-979	-9104	-41	217	91	1262	61463	1262	68908472
700	245	3977	-312	-979	-9084	-41	217	91	1263	61491	1263	68908475
705	241	3963	-316	-982	-9071	-27	217	93	1264	61585	1264	68908475
707	242	3962	-314	-986	-9113	-27	217	93	1265	61612	1265	68908481
702	254	3992	-308	-970	-9087	-27	217	93	1266	61641	1266	68908482
696	257	3979	-308	-975	-9070	-30	220	94	1267	61735	1267	68908482
700	252	3989	-312	-975	-9056	-30	220	94	1268	61762	1268	68908488
708	249	3998	-310	-980	-9097	-30	220	94	1269	61791	1269	68908488
722	248	3996	-309	-989	-9081	-26	216	98	1270	61885	1270	68908494
735	254	4002	-309	-988	-9085	-26	216	98	1271	61912	1271	68908494
717	264	4017	-307	-979	-9114	-26	216	98	1272	61941	1272	68908494
711	260	4028	-309	-978	-9065	-26	224	90	1273	62035	1273	68908500
696	264	4026	-310	-976	-9087	-26	224	90	1274	62062	1274	68908500
710	251	3975	-307	-980	-9069	-26	224	90	1275	62091	1275	68908508
712	257	3962	-305	-979	-9070	-18	226	98	1276	62185	1276	68908508
721	258	3955	-305	-978	-9086	-18	226	98	1277	62213	1277	68908511
716	253	4004	-309	-983	-9068	-18	226	98	1278	62236	1278	68908511
714	252	4004	-308	-974	-9080	-14	228	100	1279	62330	1279	68908512
709	242	3998	-309	-976	-9055	-14	228	100	1280	62341	1280	68908519
687	250	4005	-307	-978	-9073	-14	228	100	1281	62458	1281	68908520
685	261	4012	-309	-972	-9067	-14	228	100	1282	62576	1282	68908523
702	256	4004	-310	-974	-9107	-10	230	98	1283	62670	1283	68908523
711	251	3974	-313	-983	-9095	-10	230	98	1284	62680	1284	68908524
723	260	3975	-311	-979	-9071	-10	230	98	1285	62798	1285	68908530
723	261	3964	-307	-977	-9088	-10	230	98	1286	62916	1286	68908531
713	251	3971	-307	-980	-9063	-4	232	98	1287	63010	1287	68908534
692	257	3995	-311	-970	-9066	-4	232	98	1288	63020	1288	68908537
710	257	4001	-310	-979	-9087	-4	232	98	1289	63138	1289	68908538
711	257	3998	-310	-990	-9093	-4	232	98	1290	63256	1290	68908543
724	264	3999	-313	-980	-9081	2	234	102	1291	63349	1291	68908544
726	253	4006	-313	-978	-9061	2	234	102	1292	63360	1292	68908549
732	256	3974	-311	-983	-9113	2	234	102	1293	63478	1293	68908550
707	248	3975	-311	-981	-9054	-8	236	102	1294	63579	1294	68908555
703	236	3984	-310	-984	-9114	-8	236	102	1295	63630	1295	68908557
705	240	3968	-304	-980	-9084	-8	236	102	1296	63659	1296	68908558
712	238	3989	-306	-980	-9102	-8	236	102	1297	63777	1297	68908587
695	236	4009	-305	-976	-9120	5	231	103	1298	63888	1298	68908587
717	241	3981	-310	-983	-9076	5	231	103	1299	63917	1299	68908587
724	244	3967	-310	-986	-9058	5	231	103	1300	63926	1300	68908589
726	265	3978	-307	-979	-9081	5	231	103	1301	63955	1301	68908589
721	262	3987	-303	-974	-9047	15	235	105	1302	64049	1302	68908591
711	250	3980	-308	-978	-9100	15	235	105	1303	64077	1303	68908592
699	246	3971	-316	-977	-9098	15	235	105	1304	64105	1304	68908594
713	242	3977	-314	-977	-9069	17	233	97	1305	64199	1305	68908594
720	245	3982	-308	-978	-9105	17	233	97	1306	64227	1306	68908594
701	246	3990	-311	-972	-9092	17	233	97	1307	64256	1307	68908597
707	259	3985	-310	-977	-9095	22	238	98	1308	64350	1308	68908597
700	244	3991	-311	-983	-9103	22	238	98	1309	64377	1309	68908601
723	250	3999	-310	-981	-9130	22	238	98	1310	64406	1310	68908602
721	253	3975	-309	-983	-9117	28	230	102	1311	64500	1311	68908602
713	245	3973	-309	-980	-9116	28	230	102	1312	64527	1312	68908603
712	248	3970	-310	-980	-9092	28	230	102	1313	64556	1313	68908603
720	236	3972	-307	-983	-9106	31	235	101	1314	64650	1314	68908605
721	243	3992	-306	-978	-9118	31	235	101	1315	64677	1315	68908606
735	268	3981	-308	-982	-9117	31	235	101	1316	64706	1316	68908606
730	269	3982	-311	-982	-9106	38	232	104	1317	64800	1317	68908614
731	270	3992	-312	-978	-9115	38	232	104	1318	64828	1318	68908614
717	245	4011	-309	-983	-9073	38	232	104	1319	64857	1319	68908620
731	250	4002	-309	-981	-9061	40	238	102	1320	64950	1320	68908621
726	254	3980	-306	-981	-9069	40	238	102	1321	64978	1321	68908622
711	252	3966	-307	-980	-9092	40	238	102	1322	65007	1322	68908627
727	254	3964	-307	-977	-9120	35	231	107	1323	65101	1323	68908627
732	253	3973	-310	-980	-9097	35	231	107	1324	65129	1324	68908634
722	250	3975	-311	-973	-9065	35	231	107	1325	65157	1325	68908634
717	246	3987	-310	-974	-9081	51	233	107	1326	65251	1326	68908635
710	239	3991	-310	-982	-9072	51	233	107	1327	65278	1327	68908638
720	248	4004	-307	-978	-9113	51	233	107	1328	65307	1328	68908638
722	254	3975	-304	-979	-9128	49	229	103	1329	65401	1329	68908646
724	258	3955	-308	-980	-9105	49	229	103	1330	65428	1330	68908647
714	256	4011	-308	-972	-9085	49	229	103	1331	65457	1331	68908647
719	244	4001	-312	-979	-9095	55	233	103	1332	65551	1332	68908653
721	234	3986	-317	-986	-9079	55	233	103	1333	65578	1333	68908653
721	243	3991	-312	-978	-9082	55	233	103	1334	65607	1334	68908659
721	244	3993	-310	-984	-9122	56	230	108	1335	65701	1335	68908659
743	252	3993	-309	-983	-9116	56	230	108	1336	65728	1336	68908666
721	257	3971	-308	-977	-9099	56	230	108	1337	65757	1337	68908667
727	255	3966	-307	-980	-9101	64	228	110	1338	65851	1338	68908667
719	247	3962	-310	-981	-9077	64	228	110	1339	65879	1339	68908672
740	248	3992	-307	-982	-9086	64	228	110	1340	65908	1340	68908672
746	259	4024	-300	-974	-9109	64	226	114	1341	66001	1341	68908678
750	257	4009	-302	-971	-9101	64	226	114	1342	66029	1342	68908678
734	258	3997	-310	-982	-9104	64	226	114	1343	66058	1343	68908678
737	257	3995	-311	-981	-9060	74	228	104	1344	66152	1344	68908685
742	254	3996	-312	-979	-9065	74	228	104	1345	66179	1345	68908686
723	232	3966	-305	-975	-9081	74	228	104	1346	66208	1346	68908691
719	255	3964	-308	-969	-9098	76	228	110	1347	66302	1347	68908692
725	261	3993	-310	-976	-9102	76	228	110	1348	66329	1348	68908692
735	266	3970	-311	-977	-9059	76	228	110	1349	66358	1349	68908699
745	255	3975	-313	-979	-9056	80	216	110	1350	66452	1350	68908699
747	252	3966	-312	-981	-9089	80	216	110	1351	66479	1351	68908705
738	251	3976	-316	-971	-9124	80	216	110	1352	66508	1352	68908705
735	232	3977	-314	-979	-9116	89	219	111	1353	66602	1353	68908706
723	235	3999	-313	-987	-9115	89	219	111	1354	66629	1354	68908709
741	254	4032	-313	-978	-9105	89	219	111	1355	66658	1355	68908709
736	244	3988	-310	-981	-9101	86	212	116	1356	66752	1356	68908718
741	248	3974	-312	-980	-9093	86	212	116	1357	66779	1357	68908718
730	242	3991	-311	-985	-9116	86	212	116	1358	66808	1358	68908718
743	238	3985	-308	-985	-9104	99	217	115	1359	66902	1359	68908724
739	257	3968	-308	-981	-9072	99	217	115	1360	66930	1360	68908724
729	263	3975	-309	-983	-9096	99	217	115	1361	66959	1361	68908732
731	248	3975	-310	-987	-9084	95	205	113	1362	67053	1362	68908732
729	246	3986	-308	-984	-9085	95	205	113	1363	67080	1363	68908733
744	244	3981	-309	-987	-9089	95	205	113	1364	67109	1364	68908738
739	222	3985	-307	-981	-9074	107	211	111	1365	67203	1365	68908739
722	245	3991	-308	-973	-9111	107	211	111	1366	67230	1366	68908742
737	249	3988	-307	-980	-9107	107	211	111	1367	67259	1367	68908742
726	248	3983	-308	-978	-9099	98	200	120	1368	67353	1368	68908749
727	239	3991	-312	-980	-9083	98	200	120	1369	67380	1369	68908749
748	235	4005	-310	-977	-9103	98	200	120	1370	67409	1370	68908750
739	248	4000	-310	-976	-9086	105	211	119	1371	67503	1371	68908756
719	246	3998	-309	-981	-9106	105	211	119	1372	67530	1372	68908756
741	251	3974	-309	-979	-9114	105	211	119	1373	67559	1373	68908762
748	248	3977	-310	-979	-9090	107	201	121	1374	67653	1374	68908763
734	255	3989	-308	-982	-9090	107	201	121	1375	67680	1375	68908763
734	247	3999	-314	-978	-9061	107	201	121	1376	67709	1376	68908769
714	243	4010	-314	-983	-9068	115	195	123	1377	67803	1377	68908769
728	244	3989	-313	-984	-9117	115	195	123	1378	67830	1378	68908776
744	240	3982	-308	-974	-9100	115	195	123	1379	67859	1379	68908776
745	261	3981	-305	-980	-9055	113	195	123	1380	67953	1380	68908777
734	263	3997	-305	-975	-9072	113	195	123	1381	67981	1381	68908780
723	249	4006	-310	-984	-9101	113	195	123	1382	68010	1382	68908780
731	231	3984	-310	-988	-9094	121	189	125	1383	68104	1383	68908788
741	227	3991	-311	-984	-9082	121	189	125	1384	68132	1384	68908788
730	259	3978	-302	-983	-9096	121	189	125	1385	68160	1385	68908789
734	260	3985	-303	-979	-9130	118	182	122	1386	68254	1386	68908796
746	259	4000	-304	-979	-9118	118	182	122	1387	68281	1387	68908797
737	268	3977	-309	-984	-9075	118	182	122	1388	68310	1388	68908801
745	261	3992	-309	-981	-9085	126	182	132	1389	68404	1389	68908802
734	260	3994	-311	-982	-9085	126	182	132	1390	68431	1390	68908802
747	253	3991	-311	-979	-9110	126	182	132	1391	68460	1391	68908812
744	261	3985	-310	-975	-9095	130	174	126	1392	68554	1392	68908814
754	256	3970	-310	-980	-9086	130	174	126	1393	68582	1393	68908815
748	252	3989	-307	-977	-9088	130	174	126	1394	68610	1394	68908816
743	261	3985	-309	-975	-9104	129	175	133	1395	68704	1395	68908816
736	246	3978	-314	-981	-9066	129	175	133	1396	68732	1396	68908819
745	237	3989	-312	-978	-9087	129	175	133	1397	68761	1397	68908820
753	229	3978	-312	-982	-9095	131	167	131	1398	68855	1398	68908828
760	233	3976	-307	-989	-9072	131	167	131	1399	68882	1399	68908828
745	246	3978	-302	-976	-9104	131	167	131	1400	68911	1400	68908834
732	254	3988	-305	-980	-9107	133	159	143	1401	69005	1401	68908834
747	266	3993	-313	-978	-9093	133	159	143	1402	69033	1402	68908835
742	254	3982	-311	-977	-9072	133	159	143	1403	69062	1403	68908840
743	242	3982	-308	-980	-9104	136	160	138	1404	69156	1404	68908841
747	257	3982	-305	-976	-9131	136	160	138	1405	69184	1405	68908848
724	281	4001	-304	-979	-9070	136	160	138	1406	69212	1406	68908848
729	277	3987	-311	-977	-9062	128	154	154	1407	69306	1407	68908849
744	266	3965	-315	-980	-9066	128	154	154	1408	69334	1408	68908852
750	249	3955	-309	-988	-9101	128	154	154	1409	69362	1409	68908852
754	269	3971	-305	-981	-9129	129	141	133	1410	69456	1410	68908859
745	260	3982	-306	-969	-9085	129	141	133	1411	69484	1411	68908859
747	255	3996	-311	-982	-9098	129	141	133	1412	69512	1412	68908860
752	265	3992	-315	-977	-9065	122	144	152	1413	69606	1413	68908867
751	271	3989	-308	-979	-9060	122	144	152	1414	69633	1414	68908868
737	249	3959	-309	-977	-9075	122	144	152	1415	69662	1415	68908874
740	263	3975	-307	-973	-9066	133	139	145	1416	69756	1416	68908878
750	267	3985	-305	-979	-9101	133	139	145	1417	69783	1417	68908889
740	258	3983	-308	-979	-9100	133	139	145	1418	69812	1418	68908890
740	254	3982	-309	-983	-9103	126	130	154	1419	69906	1419	68908893
746	253	3997	-310	-985	-9076	126	130	154	1420	69934	1420	68908893
734	253	4002	-310	-984	-9084	126	130	154	1421	69962	1421	68908893
740	256	3990	-313	-980	-9072	124	124	152	1422	70056	1422	68908894
727	261	3979	-311	-978	-9102	124	124	152	1423	70083	1423	68908894
747	267	3999	-312	-976	-9097	124	124	152	1424	70112	1424	68908894
737	264	3975	-310	-981	-9086	119	123	153	1425	70206	1425	68908899
755	267	3978	-309	-978	-9085	119	123	153	1426	70233	1426	68908901
756	252	4002	-318	-981	-9081	119	123	153	1427	70262	1427	68908902
756	255	4006	-312	-987	-9073	126	122	148	1428	70356	1428	68908905
745	255	3996	-308	-982	-9079	126	122	148	1429	70383	1429	68908905
748	285	3992	-304	-981	-9092	126	122	148	1430	70412	1430	68908911
733	283	3967	-303	-982	-9055	109	117	149	1431	70506	1431	68908911
738	272	3985	-305	-973	-9057	109	117	149	1432	70534	1432	68908917
741	279	3977	-309	-981	-9058	109	117	149	1433	70557	1433	68908918
742	266	3978	-310	-978	-9054	110	108	154	1434	70651	1434	68908918
740	261	3971	-307	-985	-9079	110	108	154	1435	70684	1435	68908924
760	271	3963	-307	-982	-9093	110	108	154	1436	70713	1436	68908924
739	273	3983	-310	-975	-9090	108	116	150	1437	70807	1437	68908930
729	260	3975	-309	-982	-9115	108	116	150	1438	70834	1438	68908930
734	266	4006	-310	-974	-9074	108	116	150	1439	70863	1439	68908931
755	265	3998	-311	-976	-9058	106	100	154	1440	70957	1440	68908938
754	265	3979	-312	-986	-9078	106	100	154	1441	70985	1441	68908938
748	258	3981	-309	-976	-9077	106	100	154	1442	71014	1442	68908944
740	255	3983	-309	-975	-9081	92	104	148	1443	71107	1443	68908945
749	254	3981	-305	-979	-9100	92	104	148	1444	71135	1444	68908945
731	264	3988	-309	-974	-9064	92	104	148	1445	71163	1445	68908950
746	258	3991	-309	-984	-9060	98	96	150	1446	71257	1446	68908952
743	247	3964	-309	-985	-9083	98	96	150	1447	71284	1447	68908958
748	272	3993	-305	-978	-9114	98	96	150	1448	71313	1448	68908958
744	275	3990	-306	-984	-9141	84	94	144	1449	71401	1449	68908958
740	278	3982	-310	-980	-9069	84	94	144	1450	71434	1450	68908986
739	264	3972	-316	-985	-9067	84	94	144	1451	71463	1451	68908987
745	266	3983	-316	-982	-9069	88	94	156	1452	71557	1452	68908989
732	273	3973	-311	-977	-9061	88	94	156	1453	71585	1453	68908989
727	279	3972	-306	-980	-9075	88	94	156	1454	71613	1454	68908989
747	279	3969	-307	-981	-9097	81	87	127	1455	71707	1455	68908992
748	263	3984	-310	-977	-9076	81	87	127	1456	71734	1456	68908992
732	270	3984	-311	-982	-9086	81	87	127	1457	71763	1457	68908994
735	263	3979	-311	-982	-9078	78	94	148	1458	71857	1458	68908994
738	270	3969	-308	-979	-9070	78	94	148	1459	71884	1459	68908996
730	279	3972	-306	-978	-9099	78	94	148	1460	71913	1460	68908997
730	280	3961	-308	-976	-9123	74	84	128	1461	72007	1461	68908997
747	263	3982	-310	-977	-9104	74	84	128	1462	72034	1462	68908999
750	271	3976	-311	-970	-9076	74	84	128	1463	72063	1463	68909002
738	274	4004	-310	-976	-9099	73	91	139	1464	72157	1464	68909002
747	278	3992	-306	-976	-9084	73	91	139	1465	72184	1465	68909003
741	274	3986	-312	-978	-9085	73	91	139	1466	72213	1466	68909003
755	270	3966	-313	-982	-9098	73	75	127	1467	72307	1467	68909009
760	269	3958	-313	-977	-9085	73	75	127	1468	72334	1468	68909009
752	279	3977	-307	-981	-9051	73	75	127	1469	72363	1469	68909015
735	270	3984	-307	-980	-9071	66	78	132	1470	72457	1470	68909015
733	258	3979	-314	-979	-9050	66	78	132	1471	72485	1471	68909016
742	256	3955	-313	-984	-9070	66	78	132	1472	72513	1472	68909021
743	266	3975	-309	-982	-9096	65	73	127	1473	72607	1473	68909022
732	271	3992	-303	-976	-9082	65	73	127	1474	72634	1474	68909027
746	292	3997	-307	-981	-9087	65	73	127	1475	72663	1475	68909028
739	283	3982	-308	-983	-9061	64	74	128	1476	72757	1476	68909028
755	275	3988	-309	-977	-9030	64	74	128	1477	72785	1477	68909037
769	274	3985	-307	-983	-9072	64	74	128	1478	72814	1478	68909037
751	279	3993	-306	-975	-9090	62	70	126	1479	72908	1479	68909040
749	296	3992	-309	-975	-9084	62	70	126	1480	72935	1480	68909041
743	282	3977	-314	-976	-9091	62	70	126	1481	72964	1481	68909041
742	290	3998	-312	-977	-9076	62	72	128	1482	73058	1482	68909048
753	296	3983	-312	-978	-9091	62	72	128	1483	73086	1483	68909048
750	283	3997	-310	-973	-9075	62	72	128	1484	73114	1484	68909054
740	288	4003	-311	-975	-9064	59	69	121	1485	73208	1485	68909055
738	283	3998	-310	-980	-9090	59	69	121	1486	73235	1486	68909055
741	288	3985	-310	-977	-9099	59	69	121	1487	73264	1487	68909062
741	282	3976	-308	-978	-9075	59	67	117	1488	73358	1488	68909063
732	296	3980	-308	-979	-9082	59	67	117	1489	73385	1489	68909067
738	300	3995	-311	-974	-9091	59	67	117	1490	73414	1490	68909067
743	286	3962	-310	-980	-9101	47	65	115	1491	73508	1491	68909073
739	283	3987	-308	-981	-9095	47	65	115	1492	73535	1492	68909074
733	286	3993	-304	-982	-9097	47	65	115	1493	73564	1493	68909074
735	298	3977	-307	-981	-9067	51	59	117	1494	73658	1494	68909081
732	300	3988	-308	-973	-9081	51	59	117	1495	73685	1495	68909082
746	277	3979	-311	-977	-9080	51	59	117	1496	73714	1496	68909087
741	276	3963	-312	-978	-9085	42	64	116	1497	73808	1497	68909087
747	283	3966	-311	-971	-9091	42	64	116	1498	73835	1498	68909088
774	275	4002	-308	-977	-9072	42	64	116	1499	73864	1499	68909093
743	281	3950	-308	-981	-9088	48	60	114	1500	73958	1500	68909093
731	276	3962	-308	-976	-9069	48	60	114	1501	73985	1501	68909099
726	274	3974	-307	-980	-9083	48	60	114	1502	74014	1502	68909100
723	272	3983	-305	-974	-9074	45	61	117	1503	74108	1503	68909100
740	280	3990	-306	-985	-9098	45	61	117	1504	74136	1504	68909106
739	285	3991	-311	-981	-9113	45	61	117	1505	74164	1505	68909106
734	292	3997	-312	-978	-9068	40	54	108	1506	74258	1506	68909111
725	284	3981	-309	-975	-9070	40	54	108	1507	74285	1507	68909112
720	298	3986	-307	-974	-9075	40	54	108	1508	74314	1508	68909112
729	296	3984	-312	-986	-9075	35	57	113	1509	74408	1509	68909119
727	283	3999	-315	-991	-9095	35	57	113	1510	74435	1510	68909120
721	263	3974	-308	-978	-9113	35	57	113	1511	74464	1511	68909125
723	261	3983	-310	-976	-9112	32	52	102	1512	74558	1512	68909126
717	272	3981	-307	-978	-9102	32	52	102	1513	74585	1513	68909126
742	283	3987	-310	-980	-9075	32	52	102	1514	74609	1514	68909133
742	288	3973	-311	-982	-9064	36	56	104	1515	74703	1515	68909134
731	266	3957	-306	-975	-9092	36	56	104	1516	74736	1516	68909138
721	290	3960	-305	-975	-9103	36	56	104	1517	74765	1517	68909138
725	285	3974	-303	-973	-9081	32	52	102	1518	74859	1518	68909144
723	294	3979	-305	-969	-9062	32	52	102	1519	74886	1519	68909144
724	290	3956	-310	-984	-9095	32	52	102	1520	74915	1520	68909145
748	293	3983	-312	-979	-9076	29	53	107	1521	75009	1521	68909152
745	287	3987	-308	-974	-9056	29	53	107	1522	75037	1522	68909152
723	297	3975	-306	-983	-9091	29	53	107	1523	75065	1523	68909158
724	298	3984	-307	-979	-9096	23	53	95	1524	75159	1524	68909158
726	305	3999	-306	-974	-9077	23	53	95	1525	75187	1525	68909158
730	287	4003	-309	-984	-9066	23	53	95	1526	75215	1526	68909164
718	279	3989	-307	-981	-9062	29	53	101	1527	75309	1527	68909164
724	278	3997	-310	-976	-9065	29	53	101	1528	75336	1528	68909170
738	292	3977	-308	-977	-9064	29	53	101	1529	75365	1529	68909170
742	294	3955	-309	-974	-9073	15	55	89	1530	75459	1530	68909171
743	289	3968	-312	-982	-9079	15	55	89	1531	75486	1531	68909176
706	289	3973	-308	-980	-9080	15	55	89	1532	75515	1532	68909177
714	291	3995	-306	-974	-9089	19	53	85	1533	75609	1533	68909183
730	300	3977	-309	-976	-9066	19	53	85	1534	75636	1534	68909184
734	302	3979	-312	-973	-9077	19	53	85	1535	75665	1535	68909184
730	303	3977	-312	-978	-9103	12	52	88	1536	75759	1536	68909192
720	294	3964	-309	-975	-9085	12	52	88	1537	75786	1537	68909193
736	287	3952	-314	-979	-9105	12	52	88	1538	75815	1538	68909196
732	287	3952	-313	-979	-9107	13	55	87	1539	75909	1539	68909197
717	288	3964	-313	-974	-9080	13	55	87	1540	75936	1540	68909199
736	284	3968	-308	-976	-9052	13	55	87	1541	75965	1541	68909203
738	290	3970	-309	-970	-9094	11	55	85	1542	76059	1542	68909203
740	297	3974	-311	-970	-9069	11	55	85	1543	76087	1543	68909209
703	292	4000	-317	-981	-9067	11	55	85	1544	76115	1544	68909209
720	286	4010	-314	-977	-9064	8	46	84	1545	76209	1545	68909211
744	282	3970	-309	-977	-9058	8	46	84	1546	76237	1546	68909218
720	282	3977	-310	-978	-9079	8	46	84	1547	76265	1547	68909218
720	286	3972	-309	-971	-9076	6	50	86	1548	76359	1548	68909221
738	306	3963	-305	-976	-9087	6	50	86	1549	76386	1549	68909222
728	277	3973	-312	-980	-9094	6	50	86	1550	76415	1550	68909229
728	285	3976	-310	-978	-9055	-1	49	79	1551	76509	1551	68909229
728	286	3967	-308	-980	-9056	-1	49	79	1552	76536	1552	68909229
737	290	3970	-310	-972	-9065	-1	49	79	1553	76565	1553	68909236
713	289	4000	-311	-972	-9077	-2	52	76	1554	76659	1554	68909236
730	291	4019	-310	-981	-9099	-2	52	76	1555	76687	1555	68909241
719	298	4001	-311	-970	-9094	-2	52	76	1556	76715	1556	68909242
728	287	4005	-313	-974	-9084	4	52	82	1557	76809	1557	68909242
731	288	3981	-312	-980	-9089	4	52	82	1558	76836	1558	68909248
716	280	3978	-313	-978	-9090	4	52	82	1559	76865	1559	68909248
718	279	3980	-314	-985	-9068	1	55	79	1560	76959	1560	68909254
727	288	3988	-313	-980	-9073	1	55	79	1561	76986	1561	68909254
726	294	3974	-309	-972	-9086	1	55	79	1562	77015	1562	68909254
736	299	3982	-308	-977	-9067	-4	50	74	1563	77109	1563	68909260
724	305	3983	-308	-976	-9084	-4	50	74	1564	77136	1564	68909261
741	291	3994	-311	-986	-9067	-4	50	74	1565	77165	1565	68909268
726	281	3959	-309	-983	-9047	-6	60	74	1566	77259	1566	68909268
717	288	3948	-304	-974	-9050	-6	60	74	1567	77286	1567	68909268
724	291	3962	-311	-979	-9108	-6	60	74	1568	77315	1568	68909274
731	290	3955	-316	-978	-9097	-5	53	73	1569	77409	1569	68909275
723	286	3972	-316	-978	-9084	-5	53	73	1570	77436	1570	68909280
713	310	3992	-308	-984	-9093	-5	53	73	1571	77465	1571	68909283
717	310	3988	-308	-974	-9070	-8	56	78	1572	77559	1572	68909284
713	304	3979	-312	-977	-9056	-8	56	78	1573	77586	1573	68909287
723	285	3985	-310	-978	-9099	-8	56	78	1574	77615	1574	68909288
712	290	3969	-311	-978	-9112	-6	54	78	1575	77709	1575	68909293
734	285	3961	-311	-983	-9094	-6	54	78	1576	77736	1576	68909293
728	282	3968	-306	-976	-9077	-6	54	78	1577	77765	1577	68909293
713	301	3990	-305	-977	-9044	-13	59	75	1578	77859	1578	68909300
703	292	3992	-307	-979	-9048	-13	59	75	1579	77886	1579	68909302
715	274	3989	-310	-970	-9080	-13	59	75	1580	77915	1580	68909306
729	281	3991	-309	-973	-9094	-11	63	75	1581	78009	1581	68909307
738	286	4005	-310	-976	-9087	-11	63	75	1582	78036	1582	68909313
726	296	3975	-312	-979	-9089	-11	63	75	1583	78065	1583	68909313
720	281	3971	-309	-980	-9090	-12	58	74	1584	78159	1584	68909313
715	280	3987	-309	-977	-9072	-12	58	74	1585	78187	1585	68909318
711	298	3962	-309	-974	-9069	-12	58	74	1586	78216	1586	68909318
723	291	3967	-308	-975	-9101	-13	59	75	1587	78310	1587	68909325
722	291	3966	-309	-973	-9108	-13	59	75	1588	78337	1588	68909325
711	261	3960	-313	-980	-9094	-13	59	75	1589	78366	1589	68909326
710	270	3977	-313	-982	-9076	-25	65	75	1590	78460	1590	68909333
709	286	3970	-309	-977	-9077	-25	65	75	1591	78488	1591	68909334
703	294	3990	-302	-980	-9063	-25	65	75	1592	78516	1592	68909339
695	301	3990	-305	-977	-9094	-22	66	78	1593	78610	1593	68909340
704	288	4006	-312	-980	-9066	-22	66	78	1594	78637	1594	68909341
720	299	3992	-306	-980	-9075	-22	66	78	1595	78666	1595	68909345
719	291	4019	-307	-977	-9091	-18	60	80	1596	78760	1596	68909346
731	285	3995	-308	-979	-9065	-18	60	80	1597	78787	1597	68909352
714	297	3988	-313	-979	-9051	-18	60	80	1598	78816	1598	68909352
715	286	3978	-311	-977	-9075	-25	65	79	1599	78910	1599	68909352
702	281	3983	-305	-979	-9076	-25	65	79	1600	78937	1600	68909358
721	305	3994	-311	-975	-9071	-25	65	79	1601	78966	1601	68909358
703	298	3997	-307	-978	-9114	-22	62	76	1602	79060	1602	68909364
702	282	4009	-309	-979	-9043	-22	62	76	1603	79087	1603	68909365
722	271	3989	-318	-978	-9016	-22	62	76	1604	79116	1604	68909365
729	278	3976	-312	-983	-9059	-29	67	81	1605	79210	1605	68909372
724	273	3982	-305	-975	-9101	-29	67	81	1606	79238	1606	68909372
716	292	3985	-310	-976	-9080	-29	67	81	1607	79266	1607	68909378
709	290	3976	-310	-981	-9079	-33	69	75	1608	79360	1608	68909378
699	298	3981	-309	-977	-9053	-33	69	75	1609	79388	1609	68909378
709	286	3986	-307	-983	-9072	-33	69	75	1610	79416	1610	68909384
707	283	3985	-309	-981	-9079	-38	74	74	1611	79510	1611	68909384
709	294	4001	-308	-980	-9098	-38	74	74	1612	79537	1612	68909390
717	277	3979	-311	-981	-9097	-38	74	74	1613	79566	1613	68909390
707	276	3987	-311	-979	-9103	-36	72	80	1614	79660	1614	68909396
706	275	3978	-310	-978	-9081	-36	72	80	1615	79687	1615	68909397
705	290	3982	-311	-983	-9069	-36	72	80	1616	79716	1616	68909397
710	300	3989	-310	-979	-9077	-39	73	77	1617	79810	1617	68909403
690	282	3988	-312	-977	-9091	-39	73	77	1618	79837	1618	68909403
709	283	3995	-311	-986	-9059	-39	73	77	1619	79866	1619	68909411
705	283	4004	-313	-977	-9069	-41	71	75	1620	79960	1620	68909412
710	276	4017	-313	-981	-9069	-41	71	75	1621	79987	1621	68909412
700	307	3986	-307	-972	-9084	-41	71	75	1622	80016	1622	68909416
699	310	3982	-312	-976	-9073	-43	75	79	1623	80110	1623	68909424
691	304	3978	-313	-986	-9081	-43	75	79	1624	80137	1624	68909424
702	274	3983	-312	-980	-9097	-43	75	79	1625	80166	1625	68909425
704	286	3965	-310	-982	-9097	-44	80	74	1626	80260	1626	68909425
698	296	3966	-308	-979	-9123	-44	80	74	1627	80288	1627	68909429
712	279	3981	-308	-978	-9049	-44	80	74	1628	80317	1628	68909430
708	275	3974	-311	-984	-9043	-50	84	76	1629	80411	1629	68909435
695	280	3971	-314	-980	-9068	-50	84	76	1630	80438	1630	68909435
707	286	3992	-307	-978	-9085	-50	84	76	1631	80467	1631	68909436
712	268	3992	-309	-983	-9113	-52	80	72	1632	80561	1632	68909441
717	270	4001	-310	-978	-9112	-52	80	72	1633	80588	1633	68909442
698	277	3982	-307	-975	-9092	-52	80	72	1634	80617	1634	68909449
699	274	3970	-306	-978	-9050	-54	88	82	1635	80711	1635	68909450
703	282	3958	-305	-975	-9073	-54	88	82	1636	80738	1636	68909451
704	291	3964	-308	-984	-9078	-54	88	82	1637	80767	1637	68909453
710	272	3952	-310	-979	-9107	-51	89	77	1638	80861	1638	68909453
706	287	3967	-315	-985	-9081	-51	89	77	1639	80866	1639	68909461
691	265	3966	-313	-981	-9100	-51	89	77	1640	80984	1640	68909462
706	277	3955	-307	-982	-9051	-51	89	77	1641	81102	1641	68909464
700	277	3972	-309	-983	-9079	-57	87	75	1642	81196	1642	68909465
711	282	3976	-310	-978	-9099	-57	87	75	1643	81206	1643	68909465
706	282	3978	-310	-977	-9089	-57	87	75	1644	81324	1644	68909471
711	275	4002	-307	-977	-9079	-57	87	75	1645	81441	1645	68909472
707	286	4017	-309	-983	-9111	-62	98	76	1646	81535	1646	68909475
707	282	3988	-309	-977	-9102	-62	98	76	1647	81545	1647	68909475
701	265	3972	-314	-976	-9068	-62	98	76	1648	81663	1648	68909476
695	264	3988	-312	-980	-9043	-62	98	76	1649	81781	1649	68909481
691	270	3973	-311	-979	-9071	-64	92	82	1650	81874	1650	68909482
696	273	3958	-307	-974	-9087	-64	92	82	1651	81885	1651	68909490
713	274	3986	-307	-978	-9088	-64	92	82	1652	82003	1652	68909490
720	277	4002	-309	-972	-9052	-62	102	78	1653	82104	1653	68909491
701	282	3981	-310	-980	-9039	-62	102	78	1654	82155	1654	68909494
716	277	3966	-310	-977	-9056	-62	102	78	1655	82184	1655	68909494
715	267	3991	-311	-975	-9072	-62	102	78	1656	82302	1656	68909528
714	284	3989	-310	-974	-9074	-71	101	73	1657	82413	1657	68909528
700	298	3994	-304	-971	-9088	-71	101	73	1658	82446	1658	68909528
699	274	3977	-313	-982	-9077	-71	101	73	1659	82475	1659	68909531
715	259	3978	-313	-984	-9069	-65	101	79	1660	82569	1660	68909533
703	256	3934	-310	-977	-9035	-65	101	79	1661	82596	1661	68909533
701	253	3977	-311	-984	-9051	-65	101	79	1662	82625	1662	68909534
709	254	3987	-310	-979	-9086	-74	118	76	1663	82719	1663	68909534
712	270	3997	-310	-975	-9087	-74	118	76	1664	82746	1664	68909535
712	281	3996	-309	-977	-9072	-74	118	76	1665	82775	1665	68909536
698	297	4014	-308	-975	-9079	-74	114	74	1666	82869	1666	68909538
686	291	3982	-307	-979	-9061	-74	114	74	1667	82896	1667	68909538
696	288	3998	-313	-978	-9101	-74	114	74	1668	82925	1668	68909538
687	268	3985	-314	-979	-9096	-67	125	81	1669	83019	1669	68909541
689	273	3961	-312	-979	-9079	-67	125	81	1670	83047	1670	68909542
697	274	3998	-304	-969	-9106	-67	125	81	1671	83076	1671	68909543
703	273	3968	-306	-979	-9106	-72	118	78	1672	83170	1672	68909543
700	265	3959	-307	-986	-9045	-72	118	78	1673	83197	1673	68909550
686	252	3963	-313	-980	-9061	-72	118	78	1674	83226	1674	68909551
696	246	3974	-313	-984	-9054	-74	126	84	1675	83320	1675	68909551
703	259	3965	-308	-975	-9070	-74	126	84	1676	83347	1676	68909554
711	265	3961	-312	-979	-9083	-74	126	84	1677	83376	1677	68909554
701	266	3971	-312	-981	-9081	-69	125	79	1678	83470	1678	68909562
699	263	3992	-314	-978	-9075	-69	125	79	1679	83497	1679	68909562
700	267	3968	-310	-979	-9069	-69	125	79	1680	83526	1680	68909562
691	273	3973	-311	-977	-9102	-74	138	80	1681	83620	1681	68909569
701	278	3986	-310	-978	-9077	-74	138	80	1682	83647	1682	68909570
700	265	4015	-312	-981	-9098	-74	138	80	1683	83676	1683	68909575
720	261	4000	-315	-976	-9105	-69	141	83	1684	83770	1684	68909576
718	261	4004	-311	-977	-9092	-69	141	83	1685	83797	1685	68909576
727	271	3985	-307	-976	-9058	-69	141	83	1686	83826	1686	68909582
701	275	3983	-310	-971	-9070	-75	139	81	1687	83920	1687	68909583
689	276	3967	-312	-976	-9080	-75	139	81	1688	83948	1688	68909589
708	274	3992	-308	-978	-9095	-75	139	81	1689	83976	1689	68909590
711	266	3990	-302	-973	-9081	-73	141	79	1690	84070	1690	68909590
718	273	3998	-305	-977	-9096	-73	141	79	1691	84097	1691	68909593
697	267	3990	-311	-974	-9081	-73	141	79	1692	84126	1692	68909594
696	261	3997	-311	-976	-9057	-74	142	84	1693	84220	1693	68909627
695	267	3987	-313	-978	-9086	-74	142	84	1694	84247	1694	68909627
692	264	3975	-304	-977	-9088	-74	142	84	1695	84276	1695	68909628
705	269	3969	-304	-980	-9075	-75	153	83	1696	84370	1696	68909629
711	276	3960	-307	-979	-9088	-75	153	83	1697	84398	1697	68909633
698	267	3975	-314	-980	-9080	-75	153	83	1698	84426	1698	68909634
708	261	3979	-313	-984	-9067	-75	157	81	1699	84520	1699	68909635
692	277	3982	-310	-976	-9091	-75	157	81	1700	84547	1700	68909635
678	277	3997	-314	-977	-9080	-75	157	81	1701	84576	1701	68909636
692	268	3979	-314	-979	-9081	-67	161	79	1702	84670	1702	68909637
695	258	3985	-314	-976	-9110	-67	161	79	1703	84697	1703	68909637
704	234	3970	-315	-986	-9113	-67	161	79	1704	84726	1704	68909638
707	253	3978	-311	-981	-9093	-71	163	81	1705	84820	1705	68909639
712	255	3980	-312	-978	-9085	-71	163	81	1706	84847	1706	68909642
699	242	3960	-313	-981	-9088	-71	163	81	1707	84876	1707	68909642
702	246	3953	-310	-979	-9050	-68	170	84	1708	84970	1708	68909642
691	249	3976	-308	-980	-9086	-68	170	84	1709	84998	1709	68909642
711	270	3995	-310	-977	-9068	-68	170	84	1710	85026	1710	68909645
706	265	3978	-310	-973	-9066	-64	170	82	1711	85120	1711	68909645
714	275	3995	-310	-974	-9069	-64	170	82	1712	85148	1712	68909646
693	263	3987	-313	-974	-9093	-64	170	82	1713	85176	1713	68909653
687	273	3970	-311	-978	-9087	-64	176	86	1714	85270	1714	68909653
699	280	3980	-307	-985	-9078	-64	176	86	1715	85297	1715	68909660
715	250	3989	-310	-976	-9092	-64	176	86	1716	85326	1716	68909660
713	259	3988	-310	-982	-9089	-66	176	88	1717	85420	1717	68909661
694	253	3992	-309	-984	-9057	-66	176	88	1718	85447	1718	68909664
698	259	3986	-310	-976	-9056	-66	176	88	1719	85476	1719	68909664
677	274	3968	-312	-981	-9069	-61	179	89	1720	85570	1720	68909672
696	255	3943	-312	-982	-9075	-61	179	89	1721	85597	1721	68909672
703	247	3977	-310	-983	-9076	-61	179	89	1722	85626	1722	68909672
699	240	3970	-307	-988	-9044	-56	184	86	1723	85720	1723	68909679
705	269	3960	-306	-984	-9048	-56	184	86	1724	85747	1724	68909679
707	274	3983	-306	-977	-9043	-56	184	86	1725	85776	1725	68909685
701	267	3978	-310	-981	-9075	-52	188	92	1726	85870	1726	68909686
699	255	3976	-313	-978	-9076	-52	188	92	1727	85897	1727	68909686
718	239	3979	-314	-988	-9100	-52	188	92	1728	85926	1728	68909692
726	249	3968	-308	-976	-9114	-51	191	89	1729	86020	1729	68909692
702	244	3976	-308	-972	-9085	-51	191	89	1730	86048	1730	68909698
705	266	3999	-312	-979	-9045	-51	191	89	1731	86076	1731	68909699
708	255	3998	-313	-972	-9049	-57	197	91	1732	86170	1732	68909699
712	245	3995	-313	-979	-9057	-57	197	91	1733	86197	1733	68909704
716	238	3974	-307	-980	-9115	-57	197	91	1734	86226	1734	68909705
714	255	3994	-307	-976	-9126	-52	198	90	1735	86320	1735	68909712
716	265	4006	-308	-979	-9085	-52	198	90	1736	86347	1736	68909712
705	257	3979	-308	-973	-9075	-52	198	90	1737	86376	1737	68909718
696	263	3984	-309	-978	-9070	-51	201	91	1738	86470	1738	68909718
692	249	4000	-307	-982	-9055	-51	201	91	1739	86497	1739	68909718
702	255	3972	-309	-972	-9069	-51	201	91	1740	86526	1740	68909724
700	261	3972	-312	-982	-9076	-46	204	96	1741	86620	1741	68909725
712	267	3996	-313	-985	-9067	-46	204	96	1742	86647	1742	68909731
714	248	3984	-310	-978	-9072	-46	204	96	1743	86676	1743	68909735
720	263	3999	-305	-983	-9065	-47	203	87	1744	86770	1744	68909739
710	266	3998	-307	-975	-9075	-47	203	87	1745	86797	1745	68909761
690	254	3959	-308	-977	-9108	-47	203	87	1746	86826	1746	68909764
700	245	3972	-312	-984	-9105	-42	210	94	1747	86920	1747	68909764
716	235	3987	-312	-980	-9087	-42	210	94	1748	86948	1748	68909765
712	252	3970	-307	-976	-9071	-42	210	94	1749	86977	1749	68909765
715	243	3973	-306	-974	-9059	-39	211	95	1750	87070	1750	68909765
689	249	3974	-311	-971	-9051	-39	211	95	1751	87098	1751	68909766
696	236	3979	-312	-984	-9112	-39	211	95	1752	87127	1752	68909766
723	235	3957	-310	-979	-9100	-38	220	98	1753	87221	1753	68909766
720	233	3964	-308	-975	-9093	-38	220	98	1754	87248	1754	68909766
722	264	3981	-307	-973	-9088	-38	220	98	1755	87277	1755	68909766
713	259	3986	-312	-976	-9070	-33	217	93	1756	87371	1756	68909767
707	258	3970	-315	-976	-9121	-33	217	93	1757	87398	1757	68909770
703	258	3960	-307	-976	-9085	-33	217	93	1758	87427	1758	68909770
704	260	3992	-306	-976	-9090	-28	220	98	1759	87521	1759	68909771
710	258	3976	-308	-983	-9092	-28	220	98	1760	87548	1760	68909774
712	243	3987	-308	-972	-9060	-28	220	98	1761	87577	1761	68909774
726	252	3992	-313	-978	-9060	-29	219	101	1762	87671	1762	68909783
718	238	3981	-311	-980	-9092	-29	219	101	1763	87698	1763	68909783
711	254	4008	-307	-973	-9044	-29	219	101	1764	87727	1764	68909783
694	249	3991	-308	-979	-9074	-19	225	101	1765	87821	1765	68909789
714	244	3966	-309	-977	-9133	-19	225	101	1766	87849	1766	68909789
704	245	3985	-306	-980	-9088	-19	225	101	1767	87878	1767	68909795
720	251	3974	-301	-981	-9035	-17	223	95	1768	87972	1768	68909796
723	272	3976	-304	-977	-9042	-17	223	95	1769	88000	1769	68909803
698	271	3982	-310	-972	-9058	-17	223	95	1770	88023	1770	68909803
710	257	3954	-313	-978	-9064	-15	233	91	1771	88117	1771	68909804
707	263	3966	-311	-976	-9089	-15	233	91	1772	88150	1772	68909807
724	271	3975	-308	-980	-9108	-15	233	91	1773	88179	1773	68909807
708	257	3993	-302	-976	-9078	-14	228	98	1774	88273	1774	68909813
694	255	4006	-308	-969	-9089	-14	228	98	1775	88300	1775	68909813
697	240	3973	-308	-982	-9069	-14	228	98	1776	88329	1776	68909814
707	253	3984	-309	-980	-9067	-11	231	93	1777	88423	1777	68909822
712	245	3979	-310	-978	-9089	-11	231	93	1778	88450	1778	68909823
728	242	3981	-309	-980	-9050	-11	231	93	1779	88479	1779	68909828
715	253	3995	-309	-977	-9067	-6	232	102	1780	88573	1780	68909829
709	259	4005	-308	-984	-9082	-6	232	102	1781	88600	1781	68909829
707	266	3990	-310	-981	-9070	-6	232	102	1782	88629	1782	68909834
722	265	4008	-311	-981	-9093	6	224	100	1783	88723	1783	68909834
725	270	3971	-307	-980	-9098	6	224	100	1784	88750	1784	68909841
714	279	3970	-307	-977	-9095	6	224	100	1785	88779	1785	68909842
716	269	3967	-313	-982	-9082	2	236	98	1786	88873	1786	68909842
721	260	3968	-309	-982	-9071	2	236	98	1787	88900	1787	68909845
730	252	4008	-312	-975	-9070	2	236	98	1788	88929	1788	68909846
691	257	4000	-310	-978	-9095	2	230	100	1789	89023	1789	68909853
700	260	3978	-310	-977	-9093	2	230	100	1790	89051	1790	68909853
720	231	3983	-311	-983	-9095	2	230	100	1791	89074	1791	68909853
730	229	3971	-310	-981	-9092	11	235	111	1792	89168	1792	68909859
731	241	3973	-309	-975	-9084	11	235	111	1793	89179	1793	68909859
698	265	3979	-309	-976	-9080	11	235	111	1794	89296	1794	68909863
711	269	3974	-310	-973	-9081	11	235	111	1795	89414	1795	68909863
717	248	3983	-310	-977	-9062	19	233	101	1796	89508	1796	68909872
726	247	3995	-309	-982	-9076	19	233	101	1797	89518	1797	68909872
707	235	3994	-312	-986	-9082	19	233	101	1798	89636	1798	68909872
728	238	3982	-310	-979	-9107	19	233	101	1799	89754	1799	68909877
735	264	3977	-311	-978	-9073	23	231	99	1800	89848	1800	68909877
725	249	3979	-308	-975	-9048	23	231	99	1801	89858	1801	68909882
711	245	3958	-311	-978	-9072	23	231	99	1802	89976	1802	68909882
710	255	3953	-312	-980	-9097	23	231	99	1803	90094	1803	68909883
734	254	3956	-307	-982	-9124	24	236	104	1804	90187	1804	68909887
735	259	3988	-303	-978	-9104	24	236	104	1805	90198	1805	68909887
730	261	3978	-306	-975	-9118	24	236	104	1806	90316	1806	68909893
726	257	3976	-309	-987	-9089	24	236	104	1807	90434	1807	68909893
729	244	3969	-311	-978	-9074	30	232	104	1808	90528	1808	68909893
726	237	3973	-310	-976	-9069	30	232	104	1809	90538	1809	68909896
711	239	3965	-309	-979	-9066	30	232	104	1810	90656	1810	68909897
708	243	3985	-305	-977	-9107	30	232	104	1811	90774	1811	68909905
715	245	3990	-307	-969	-9095	34	234	102	1812	90868	1812	68909905
725	243	3995	-312	-978	-9102	34	234	102	1813	90878	1813	68909906
734	238	4006	-312	-978	-9070	34	234	102	1814	91004	1814	68909911
743	257	3995	-312	-978	-9070	41	227	107	1815	91009	1815	68909912
734	251	3957	-308	-984	-9089	41	227	107	1816	91035	1816	68909918
724	240	3974	-312	-975	-9095	41	227	107	1817	91064	1817	68909918
742	245	3945	-307	-982	-9084	47	237	105	1818	91158	1818	68909918
725	230	3971	-308	-981	-9093	47	237	105	1819	91185	1819	68909924
746	250	3980	-311	-981	-9108	47	237	105	1820	91214	1820	68909925
750	263	3978	-307	-981	-9080	44	232	108	1821	91308	1821	68909930
736	265	3984	-308	-979	-9068	44	232	108	1822	91335	1822	68909930
724	265	4010	-312	-982	-9073	44	232	108	1823	91364	1823	68909931
725	236	4004	-310	-985	-9076	52	230	108	1824	91458	1824	68909937
715	238	3990	-306	-979	-9084	52	230	108	1825	91485	1825	68909937
730	252	3990	-305	-985	-9087	52	230	108	1826	91514	1826	68909944
718	254	3998	-306	-984	-9106	56	234	106	1827	91608	1827	68909945
723	252	4014	-309	-981	-9076	56	234	106	1828	91635	1828	68909951
730	259	4008	-311	-989	-9076	56	234	106	1829	91664	1829	68909952
714	258	4010	-308	-978	-9097	54	234	106	1830	91758	1830	68909952
730	252	3996	-304	-976	-9101	54	234	106	1831	91785	1831	68909954
734	251	3963	-308	-981	-9086	54	234	106	1832	91814	1832	68909955
731	254	3972	-312	-983	-9101	58	232	104	1833	91908	1833	68909963
739	241	3973	-311	-987	-9088	58	232	104	1834	91936	1834	68909964
739	250	3938	-306	-979	-9104	58	232	104	1835	91964	1835	68909964
729	240	3967	-308	-978	-9095	62	230	106	1836	92058	1836	68909969
735	253	3970	-306	-982	-9077	62	230	106	1837	92085	1837	68909972
742	253	4000	-309	-978	-9104	62	230	106	1838	92114	1838	68909975
741	234	3987	-309	-979	-9120	69	227	103	1839	92208	1839	68909976
746	259	3981	-308	-979	-9078	69	227	103	1840	92235	1840	68909976
736	250	3950	-310	-972	-9043	69	227	103	1841	92264	1841	68909983
733	245	3969	-306	-982	-9070	78	228	106	1842	92358	1842	68909984
722	243	4010	-305	-984	-9096	78	228	106	1843	92385	1843	68909989
736	237	3966	-311	-980	-9123	78	228	106	1844	92414	1844	68909990
734	248	3976	-309	-978	-9095	85	223	115	1845	92508	1845	68909990
713	257	3976	-307	-972	-9070	85	223	115	1846	92535	1846	68909996
723	243	3989	-311	-986	-9080	85	223	115	1847	92564	1847	68909996
725	236	3992	-311	-987	-9101	82	220	112	1848	92658	1848	68910002
746	231	4003	-311	-986	-9089	82	220	112	1849	92685	1849	68910002
724	253	3977	-308	-984	-9124	82	220	112	1850	92714	1850	68910003
717	254	3975	-308	-976	-9100	85	219	109	1851	92808	1851	68910008
741	255	3960	-307	-979	-9082	85	219	109	1852	92835	1852	68910009
727	242	4007	-311	-982	-9108	85	219	109	1853	92864	1853	68910015
730	246	4001	-314	-976	-9094	90	212	118	1854	92958	1854	68910016
743	228	4016	-311	-977	-9109	90	212	118	1855	92985	1855	68910016
742	240	4007	-307	-978	-9128	90	212	118	1856	93014	1856	68910022
742	247	3993	-309	-976	-9121	97	211	111	1857	93108	1857	68910022
732	256	3990	-307	-985	-9123	97	211	111	1858	93135	1858	68910025
731	257	3951	-308	-974	-9081	97	211	111	1859	93164	1859	68910026
744	244	3974	-311	-977	-9069	93	203	113	1860	93258	1860	68910034
734	240	4001	-310	-987	-9094	93	203	113	1861	93285	1861	68910034
737	239	3966	-309	-983	-9111	93	203	113	1862	93314	1862	68910034
724	240	3952	-312	-986	-9102	105	203	109	1863	93408	1863	68910040
727	238	3993	-310	-984	-9131	105	203	109	1864	93435	1864	68910041
737	262	3973	-305	-974	-9074	105	203	109	1865	93464	1865	68910046
747	256	3979	-310	-980	-9045	99	203	119	1866	93558	1866	68910047
750	249	3985	-315	-980	-9073	99	203	119	1867	93585	1867	68910047
718	240	3991	-315	-985	-9102	99	203	119	1868	93614	1868	68910054
743	249	4001	-310	-986	-9109	114	200	118	1869	93708	1869	68910055
741	250	4002	-309	-984	-9109	114	200	118	1870	93735	1870	68910060
741	253	3985	-309	-984	-9088	114	200	118	1871	93764	1871	68910060
742	262	3983	-310	-984	-9043	115	197	121	1872	93858	1872	68910061
738	259	3985	-314	-983	-9066	115	197	121	1873	93885	1873	68910067
731	251	3989	-308	-985	-9112	115	197	121	1874	93914	1874	68910067
737	261	3980	-307	-983	-9109	120	192	126	1875	94008	1875	68910073
716	265	4008	-306	-984	-9085	120	192	126	1876	94036	1876	68910074
745	259	3983	-308	-984	-9125	120	192	126	1877	94064	1877	68910075
743	266	3998	-312	-979	-9097	112	188	122	1878	94158	1878	68910079
741	267	3981	-314	-982	-9084	112	188	122	1879	94185	1879	68910083
760	255	3982	-310	-975	-9109	112	188	122	1880	94214	1880	68910087
727	248	3972	-308	-980	-9116	126	188	126	1881	94308	1881	68910087
732	249	3961	-309	-985	-9114	126	188	126	1882	94335	1882	68910088
737	258	3965	-307	-976	-9132	126	188	126	1883	94364	1883	68910093
738	247	3984	-306	-980	-9092	119	177	123	1884	94458	1884	68910094
734	252	3983	-306	-984	-9076	119	177	123	1885	94485	1885	68910097
733	261	3995	-312	-984	-9082	119	177	123	1886	94514	1886	68910097
732	262	4005	-308	-987	-9108	130	180	130	1887	94608	1887	68910098
748	252	3998	-312	-980	-9112	130	180	130	1888	94635	1888	68910105
720	260	3964	-305	-978	-9099	130	180	130	1889	94664	1889	68910106
721	267	3978	-304	-981	-9070	128	170	126	1890	94758	1890	68910111
736	280	3997	-308	-983	-9059	128	170	126	1891	94785	1891	68910112
729	251	4004	-318	-982	-9068	128	170	126	1892	94814	1892	68910118
728	251	3997	-315	-979	-9107	129	173	133	1893	94908	1893	68910118
738	245	3996	-309	-978	-9116	129	173	133	1894	94936	1894	68910118
