Accl X	Accl Y	Accl Z	Gyro X	Gyro Y	Gyro Z	Mag X	Mag Y	Mag Z	RPkt#	Rtime	LPkt#	Ltime
706	259	3925	-307	-980	-9075	-74	142	86	0	0	0	68704109
695	257	3901	-310	-975	-9067	-74	142	86	1	10	1	68704118
681	264	3900	-306	-968	-9063	-74	142	86	2	128	2	68704121
679	267	3939	-305	-967	-9083	-74	142	86	3	246	3	68704122
692	278	3936	-304	-973	-9059	-71	143	81	4	356	4	68704122
691	267	3922	-307	-982	-9050	-71	143	81	5	385	5	68704123
698	252	3957	-316	-985	-9084	-71	143	81	6	503	6	68704129
731	247	3961	-313	-980	-9095	-71	143	81	7	621	7	68704130
711	234	3980	-305	-978	-9106	-68	148	86	8	715	8	68704130
701	262	3964	-298	-973	-9094	-68	148	86	9	725	9	68704133
683	267	3967	-295	-974	-9071	-68	148	86	10	843	10	68704133
671	263	3949	-298	-980	-9085	-68	148	86	11	960	11	68704139
690	257	3945	-299	-985	-9050	-76	156	84	12	1055	12	68704140
698	244	3899	-303	-981	-9065	-76	156	84	13	1055	13	68704140
712	251	3908	-298	-984	-9065	-76	156	84	14	1183	14	68704146
712	245	3917	-298	-978	-9080	-76	156	84	15	1301	15	68704146
688	238	3924	-300	-968	-9043	-72	158	84	16	1395	16	68704149
685	243	3932	-298	-970	-9045	-72	158	84	17	1405	17	68704150
685	250	3959	-298	-973	-9053	-72	158	84	18	1522	18	68704150
699	266	3979	-297	-969	-9064	-72	158	84	19	1640	19	68704157
668	274	3976	-292	-976	-9074	-77	163	89	20	1729	20	68704157
676	273	3943	-295	-970	-9090	-77	163	89	21	1744	21	68704161
690	260	3924	-300	-973	-9099	-77	163	89	22	1862	22	68704161
689	257	3902	-300	-974	-9088	-77	163	89	23	1980	23	68704161
663	258	3908	-302	-974	-9105	-65	165	83	24	2074	24	68704192
667	253	3911	-298	-972	-9086	-65	165	83	25	2084	25	68704192
672	255	3912	-298	-969	-9065	-65	165	83	26	2092	26	68704193
676	268	3929	-302	-972	-9075	-64	174	92	27	2097	27	68704194
678	253	3944	-308	-976	-9065	-64	174	92	28	2107	28	68704196
682	235	3951	-310	-984	-9072	-64	174	92	29	2113	29	68704196
700	245	3976	-310	-980	-9100	-67	179	75	30	2118	30	68704197
694	257	3973	-303	-973	-9079	-67	179	75	31	2129	31	68704198
681	268	3983	-297	-977	-9051	-67	179	75	32	2135	32	68704199
678	270	3964	-299	-975	-9060	-70	176	88	33	2140	33	68704201
670	257	3933	-302	-980	-9054	-70	176	88	34	2151	34	68704201
678	258	3908	-300	-978	-9058	-70	176	88	35	2156	35	68704202
676	247	3900	-299	-977	-9084	-63	181	85	36	2161	36	68704203
707	252	3931	-300	-981	-9085	-63	181	85	37	2172	37	68704204
684	252	3905	-301	-969	-9052	-63	181	85	38	2178	38	68704207
700	248	3955	-302	-973	-9080	-56	188	86	39	2183	39	68704208
706	251	3975	-300	-972	-9062	-56	188	86	40	2193	40	68704208
691	257	3985	-299	-969	-9088	-56	188	86	41	2199	41	68704213
688	267	3956	-299	-974	-9098	-53	189	87	42	2204	42	68704214
668	248	3955	-298	-974	-9089	-53	189	87	43	2215	43	68704220
664	247	3933	-300	-967	-9081	-53	189	87	44	2220	44	68704221
678	241	3928	-296	-972	-9060	-60	192	92	45	2225	45	68704221
674	253	3918	-296	-972	-9068	-60	192	92	46	2236	46	68704227
679	245	3917	-302	-983	-9056	-60	192	92	47	2242	47	68704227
675	260	3950	-305	-984	-9096	-49	199	91	48	2246	48	68704233
698	242	3971	-307	-979	-9077	-49	199	91	49	2257	49	68704234
692	238	3960	-304	-986	-9092	-49	199	91	50	2263	50	68704234
696	262	3965	-302	-980	-9093	-55	201	87	51	2268	51	68704240
680	277	3970	-305	-979	-9082	-55	201	87	52	2279	52	68704241
681	276	3943	-308	-984	-9100	-55	201	87	53	2284	53	68704246
678	257	3966	-307	-984	-9080	-45	209	91	54	2289	54	68704246
684	248	3965	-303	-981	-9068	-45	209	91	55	2300	55	68704246
704	241	3944	-304	-974	-9056	-45	209	91	56	2305	56	68704252
692	262	3972	-301	-968	-9054	-48	204	92	57	2310	57	68704252
678	248	3976	-303	-972	-9056	-48	204	92	58	2321	58	68704258
684	248	3949	-303	-980	-9082	-48	204	92	59	2327	59	68704258
721	247	3933	-299	-977	-9069	-43	211	91	60	2332	60	68704266
715	252	3958	-299	-978	-9065	-43	211	91	61	2342	61	68704266
719	238	3947	-301	-967	-9078	-43	211	91	62	2348	62	68704266
701	246	3950	-300	-974	-9098	-41	205	91	63	2353	63	68704272
700	244	3954	-299	-974	-9092	-41	205	91	64	2364	64	68704272
686	249	3944	-300	-968	-9074	-41	205	91	65	2369	65	68704278
668	263	3939	-303	-977	-9060	-37	211	93	66	2374	66	68704278
684	260	3972	-301	-980	-9088	-37	211	93	67	2385	67	68704279
698	243	3952	-305	-974	-9072	-37	211	93	68	2391	68	68704284
711	258	3945	-301	-976	-9085	-32	214	94	69	2396	69	68704285
712	251	3965	-298	-976	-9091	-32	214	94	70	2406	70	68704291
689	253	3965	-300	-978	-9075	-32	214	94	71	2412	71	68704291
706	255	3938	-305	-988	-9050	-33	217	93	72	2417	72	68704291
692	246	3935	-307	-984	-9075	-33	217	93	73	2428	73	68704297
703	237	3927	-305	-986	-9104	-33	217	93	74	2434	74	68704297
698	236	3952	-301	-977	-9063	-25	217	99	75	2439	75	68704304
703	250	3955	-299	-973	-9062	-25	217	99	76	2449	76	68704305
702	243	3959	-308	-978	-9064	-25	217	99	77	2455	77	68704305
691	262	3970	-306	-976	-9068	-31	219	93	78	2460	78	68704311
714	263	3960	-303	-981	-9103	-31	219	93	79	2471	79	68704311
697	248	3959	-301	-975	-9113	-31	219	93	80	2477	80	68704317
709	258	3947	-301	-973	-9090	-26	220	100	81	2482	81	68704317
691	262	3912	-303	-971	-9096	-26	220	100	82	2492	82	68704317
697	237	3900	-304	-972	-9074	-26	220	100	83	2498	83	68704323
683	238	3930	-305	-974	-9058	-15	229	99	84	2503	84	68704323
693	240	3941	-301	-979	-9102	-15	229	99	85	2513	85	68704329
687	229	3946	-299	-971	-9084	-15	229	99	86	2519	86	68704330
695	231	3955	-306	-974	-9075	-13	225	101	87	2524	87	68704331
702	235	3964	-303	-980	-9083	-13	225	101	88	2534	88	68704336
683	230	3980	-301	-972	-9089	-13	225	101	89	2540	89	68704336
688	228	3963	-298	-980	-9077	-10	228	102	90	2545	90	68704343
692	231	3936	-297	-984	-9098	-10	228	102	91	2556	91	68704343
692	247	3929	-303	-980	-9064	-10	228	102	92	2562	92	68704349
710	235	3909	-305	-983	-9064	-11	225	95	93	2567	93	68704350
699	232	3919	-301	-977	-9070	-11	225	95	94	2577	94	68704351
698	229	3928	-299	-976	-9088	-11	225	95	95	2583	95	68704353
695	252	3941	-299	-979	-9076	0	234	100	96	2588	96	68704353
691	267	3963	-306	-978	-9091	0	234	100	97	2598	97	68704362
700	262	3951	-307	-981	-9093	0	234	100	98	2604	98	68704362
706	244	3965	-303	-978	-9079	5	229	99	99	2609	99	68704362
714	240	3970	-301	-975	-9043	5	229	99	100	2620	100	68704368
703	242	3970	-302	-979	-9058	5	229	99	101	2626	101	68704368
683	223	3940	-307	-976	-9058	1	231	103	102	2631	102	68704374
697	229	3951	-309	-974	-9059	1	231	103	103	2641	103	68704375
695	227	3946	-304	-973	-9109	1	231	103	104	2647	104	68704375
701	222	3940	-298	-970	-9102	10	232	98	105	2652	105	68704382
679	240	3933	-302	-971	-9067	10	232	98	106	2663	106	68704382
698	241	3940	-305	-973	-9062	10	232	98	107	2669	107	68704386
706	242	3920	-308	-977	-9097	16	236	100	108	2674	108	68704386
708	240	3945	-307	-979	-9052	16	236	100	109	2679	109	68704386
697	255	3931	-297	-970	-9083	16	236	100	110	2782	110	68704393
719	239	3931	-299	-973	-9087	16	236	100	111	2903	111	68704394
707	249	3958	-304	-977	-9070	14	236	104	112	2991	112	68704397
708	254	3949	-303	-979	-9070	14	236	104	113	3002	113	68704397
704	253	3928	-301	-977	-9072	14	236	104	114	3119	114	68704406
709	243	3906	-301	-978	-9069	22	236	100	115	3222	115	68704406
692	230	3919	-300	-969	-9087	22	236	100	116	3251	116	68704406
714	251	3940	-302	-981	-9080	22	236	100	117	3369	117	68704409
703	256	3945	-300	-982	-9069	22	236	100	118	3487	118	68704410
683	251	3967	-302	-983	-9104	24	234	108	119	3581	119	68704417
673	249	3980	-302	-984	-9079	24	234	108	120	3591	120	68704417
687	248	3976	-300	-980	-9097	24	234	108	121	3704	121	68704417
703	244	3980	-304	-973	-9074	24	234	108	122	3821	122	68704423
713	249	3963	-306	-979	-9067	31	233	103	123	3932	123	68704423
700	255	3934	-300	-980	-9080	31	233	103	124	3960	124	68704429
718	259	3907	-304	-977	-9057	31	233	103	125	4078	125	68704430
705	251	3914	-304	-976	-9048	31	233	103	126	4196	126	68704430
706	252	3941	-307	-971	-9075	36	234	108	127	4290	127	68704433
714	240	3941	-309	-971	-9078	36	234	108	128	4300	128	68704438
729	238	3940	-307	-978	-9077	36	234	108	129	4418	129	68704442
726	244	3940	-304	-974	-9081	36	234	108	130	4535	130	68704442
718	248	3941	-303	-968	-9090	41	233	103	131	4640	131	68704442
719	260	3965	-304	-972	-9097	41	233	103	132	4669	132	68704445
725	239	3944	-304	-976	-9094	41	233	103	133	4787	133	68704446
707	229	3920	-304	-981	-9075	41	233	103	134	4905	134	68704453
718	243	3934	-303	-978	-9063	45	231	105	135	4999	135	68704456
711	233	3956	-302	-969	-9076	45	231	105	136	5009	136	68704457
701	240	3938	-297	-970	-9101	45	231	105	137	5127	137	68704459
708	247	3936	-301	-977	-9074	45	231	105	138	5244	138	68704460
710	226	3949	-305	-974	-9086	53	229	103	139	5349	139	68704465
709	231	3941	-305	-979	-9077	53	229	103	140	5378	140	68704466
698	234	3954	-300	-975	-9071	53	229	103	141	5496	141	68704469
710	249	3948	-301	-977	-9093	53	229	103	142	5614	142	68704470
704	252	3974	-303	-980	-9056	56	236	106	143	5708	143	68704471
706	237	3945	-307	-979	-9079	56	236	106	144	5718	144	68704477
705	227	3928	-307	-978	-9086	56	236	106	145	5836	145	68704477
718	244	3936	-308	-978	-9079	56	236	106	146	5953	146	68704483
727	266	3943	-304	-976	-9060	57	233	107	147	6058	147	68704483
715	244	3950	-303	-971	-9067	57	233	107	148	6087	148	68704483
703	222	3957	-305	-972	-9068	57	233	107	149	6205	149	68704489
704	222	3937	-304	-977	-9096	57	233	107	150	6323	150	68704490
700	226	3944	-303	-976	-9064	67	225	105	151	6417	151	68704493
706	222	3952	-301	-977	-9082	67	225	105	152	6427	152	68704493
708	230	3946	-300	-974	-9058	67	225	105	153	6545	153	68704493
714	252	3957	-304	-975	-9091	67	225	105	154	6662	154	68704502
707	255	3937	-301	-979	-9061	68	226	104	155	6767	155	68704502
723	239	3944	-299	-975	-9034	68	226	104	156	6796	156	68704505
717	239	3930	-302	-977	-9072	68	226	104	157	6914	157	68704506
714	258	3950	-301	-976	-9065	68	226	104	158	7032	158	68704506
715	251	3941	-306	-977	-9037	72	220	106	159	7126	159	68704513
722	242	3957	-309	-978	-9087	72	220	106	160	7136	160	68704513
714	239	3973	-308	-976	-9065	72	220	106	161	7254	161	68704520
705	249	3975	-307	-975	-9068	72	220	106	162	7371	162	68704521
719	257	3950	-306	-976	-9055	80	222	112	163	7476	163	68704521
710	246	3940	-301	-973	-9063	80	222	112	164	7505	164	68704524
724	246	3941	-305	-981	-9073	80	222	112	165	7623	165	68704525
713	239	3920	-306	-977	-9094	80	222	112	166	7741	166	68704531
707	245	3926	-301	-978	-9068	85	217	115	167	7835	167	68704531
703	243	3943	-298	-979	-9045	85	217	115	168	7845	168	68704538
717	247	3948	-301	-974	-9054	85	217	115	169	7963	169	68704538
709	248	3953	-302	-972	-9060	85	217	115	170	8080	170	68704538
723	248	3932	-302	-975	-9034	91	215	113	171	8185	171	68704544
726	258	3987	-304	-979	-9050	91	215	113	172	8214	172	68704544
725	253	3953	-300	-976	-9064	91	215	113	173	8332	173	68704548
710	251	3957	-301	-981	-9071	91	215	113	174	8450	174	68704548
705	247	3944	-304	-980	-9044	92	210	116	175	8543	175	68704548
697	241	3935	-311	-975	-9070	92	210	116	176	8554	176	68704556
718	249	3950	-308	-976	-9069	92	210	116	177	8672	177	68704556
720	253	3961	-304	-975	-9077	92	210	116	178	8789	178	68704562
727	251	3946	-306	-971	-9068	103	207	117	179	8894	179	68704562
716	231	3911	-307	-978	-9097	103	207	117	180	8923	180	68704562
706	240	3922	-306	-970	-9090	103	207	117	181	9041	181	68704568
727	225	3934	-305	-973	-9090	103	207	117	182	9159	182	68704568
718	226	3930	-306	-977	-9089	105	201	119	183	9253	183	68704572
712	232	3939	-302	-975	-9091	105	201	119	184	9263	184	68704572
720	235	3932	-301	-975	-9058	105	201	119	185	9381	185	68704572
730	236	3922	-300	-979	-9061	105	201	119	186	9498	186	68704580
720	241	3910	-299	-978	-9072	117	199	109	187	9603	187	68704581
719	245	3945	-304	-976	-9061	117	199	109	188	9632	188	68704584
713	239	3946	-302	-973	-9048	117	199	109	189	9750	189	68704585
739	265	3963	-301	-975	-9069	117	199	109	190	9867	190	68704585
706	271	3945	-298	-977	-9090	118	194	124	191	9961	191	68704592
710	238	3966	-302	-978	-9077	118	194	124	192	9971	192	68704592
725	231	3961	-300	-977	-9078	118	194	124	193	10089	193	68704598
706	239	3921	-302	-980	-9048	118	194	124	194	10206	194	68704598
705	241	3932	-302	-980	-9064	115	187	121	195	10311	195	68704599
725	233	3951	-305	-974	-9083	115	187	121	196	10340	196	68704604
726	228	3935	-307	-980	-9059	115	187	121	197	10458	197	68704605
738	246	3928	-301	-973	-9068	115	187	121	198	10576	198	68704608
724	255	3923	-297	-976	-9059	126	186	118	199	10670	199	68704608
714	258	3952	-300	-976	-9025	126	186	118	200	10680	200	68704617
710	262	3945	-299	-972	-9059	126	186	118	201	10798	201	68704617
707	260	3953	-302	-975	-9057	126	186	118	202	10915	202	68704617
731	259	3943	-307	-980	-9063	123	181	137	203	11020	203	68704623
733	261	3951	-305	-972	-9068	123	181	137	204	11049	204	68704623
729	260	3938	-304	-977	-9089	123	181	137	205	11167	205	68704626
713	271	3924	-305	-974	-9071	123	181	137	206	11285	206	68704627
711	265	3948	-307	-974	-9080	128	176	126	207	11379	207	68704627
714	264	3939	-313	-975	-9053	128	176	126	208	11389	208	68704633
727	265	3944	-309	-973	-9092	128	176	126	209	11507	209	68704633
738	244	3926	-305	-974	-9082	128	176	126	210	11624	210	68704640
739	242	3944	-309	-976	-9083	125	171	135	211	11729	211	68704641
734	230	3949	-302	-975	-9080	125	171	135	212	11758	212	68704641
750	231	3937	-300	-974	-9081	125	171	135	213	11876	213	68704647
727	251	3937	-302	-973	-9042	125	171	135	214	11994	214	68704647
731	250	3943	-300	-973	-9063	125	165	129	215	12087	215	68704650
735	255	3958	-300	-978	-9051	125	165	129	216	12098	216	68704651
720	254	3951	-302	-982	-9088	125	165	129	217	12216	217	68704651
729	241	3919	-304	-972	-9075	125	165	129	218	12333	218	68704659
723	261	3923	-303	-971	-9086	136	154	142	219	12438	219	68704661
721	267	3958	-306	-974	-9073	136	154	142	220	12467	220	68704665
704	281	3950	-302	-973	-9083	136	154	142	221	12585	221	68704665
729	277	3948	-305	-976	-9070	136	154	142	222	12703	222	68704666
728	269	3945	-303	-980	-9091	123	155	145	223	12797	223	68704671
716	260	3931	-304	-979	-9076	123	155	145	224	12807	224	68704671
726	231	3937	-304	-976	-9063	123	155	145	225	12925	225	68704677
727	228	3932	-303	-976	-9052	123	155	145	226	13042	226	68704677
708	245	3928	-304	-972	-9065	137	151	139	227	13147	227	68704678
708	265	3945	-308	-978	-9067	137	151	139	228	13176	228	68704684
719	244	3922	-304	-976	-9067	137	151	139	229	13294	229	68704684
716	245	3947	-308	-979	-9076	137	151	139	230	13411	230	68704687
735	249	3930	-306	-978	-9075	126	148	148	231	13505	231	68704687
746	258	3922	-303	-970	-9074	126	148	148	232	13515	232	68704696
730	259	3960	-302	-969	-9078	126	148	148	233	13633	233	68704696
726	266	3958	-300	-975	-9066	126	148	148	234	13750	234	68704696
717	263	3932	-303	-974	-9054	129	137	149	235	13855	235	68704700
731	271	3933	-305	-975	-9070	129	137	149	236	13884	236	68704701
735	275	3937	-303	-982	-9053	129	137	149	237	14002	237	68704707
733	255	3918	-305	-980	-9086	129	137	149	238	14120	238	68704708
742	239	3920	-309	-979	-9058	129	125	149	239	14214	239	68704708
733	250	3934	-308	-974	-9081	129	125	149	240	14224	240	68704711
727	263	3920	-304	-968	-9061	129	125	149	241	14342	241	68704713
719	266	3925	-301	-969	-9087	129	125	149	242	14459	242	68704720
728	281	3929	-304	-973	-9062	117	125	155	243	14564	243	68704721
731	239	3949	-311	-976	-9039	117	125	155	244	14593	244	68704721
740	233	3957	-300	-976	-9069	117	125	155	245	14711	245	68704726
711	242	3948	-304	-967	-9077	117	125	155	246	14829	246	68704728
722	239	3949	-303	-969	-9067	118	116	142	247	14923	247	68704730
723	260	3947	-301	-978	-9076	118	116	142	248	14933	248	68704730
717	284	3942	-305	-973	-9048	118	116	142	249	15051	249	68704730
727	276	3950	-306	-970	-9065	118	116	142	250	15168	250	68704738
730	258	3961	-307	-976	-9056	111	113	159	251	15273	251	68704739
736	266	3950	-304	-978	-9046	111	113	159	252	15302	252	68704742
727	255	3965	-302	-969	-9085	111	113	159	253	15420	253	68704742
719	254	3950	-307	-971	-9111	111	113	159	254	15538	254	68704743
741	255	3935	-308	-970	-9082	102	104	144	255	15632	255	68704748
736	249	3957	-305	-976	-9100	102	104	144	256	15642	256	68704749
752	268	3937	-303	-980	-9073	102	104	144	257	15760	257	68704756
738	260	3933	-300	-975	-9122	102	104	144	258	15877	258	68704756
733	260	3954	-302	-975	-9084	107	107	157	259	15982	259	68704756
728	245	3948	-303	-981	-9090	107	107	157	260	16011	260	68704762
726	260	3934	-299	-972	-9092	107	107	157	261	16129	261	68704770
717	256	3934	-302	-975	-9081	107	107	157	262	16247	262	68704772
712	271	3948	-301	-975	-9054	99	105	151	263	16341	263	68704772
716	264	3937	-303	-975	-9035	99	105	151	264	16351	264	68704774
713	263	3921	-305	-978	-9067	99	105	151	265	16469	265	68704775
720	264	3923	-305	-979	-9069	99	105	151	266	16586	266	68704775
730	268	3931	-305	-974	-9063	97	91	149	267	16691	267	68704778
726	277	3930	-301	-976	-9105	97	91	149	268	16720	268	68704779
724	294	3948	-301	-976	-9068	97	91	149	269	16838	269	68704786
721	269	3941	-306	-980	-9092	97	91	149	270	16955	270	68704786
731	273	3950	-306	-986	-9064	84	100	150	271	17049	271	68704787
728	263	3944	-306	-980	-9069	84	100	150	272	17059	272	68704790
735	258	3934	-308	-978	-9060	84	100	150	273	17177	273	68704794
736	269	3913	-304	-976	-9076	84	100	150	274	17294	274	68704798
717	262	3908	-301	-973	-9096	84	84	136	275	17399	275	68704799
718	276	3945	-307	-982	-9084	84	84	136	276	17428	276	68704799
729	272	3990	-304	-982	-9095	84	84	136	277	17546	277	68704802
734	273	3935	-305	-979	-9071	84	84	136	278	17658	278	68704802
736	272	3927	-303	-976	-9081	86	88	148	279	17752	279	68704831
747	270	3935	-299	-981	-9062	86	88	148	280	17757	280	68704831
725	277	3943	-303	-977	-9089	86	88	148	281	17875	281	68704831
721	288	3927	-301	-980	-9104	86	88	148	282	17993	282	68704833
736	293	3928	-295	-981	-9060	78	84	134	283	18108	283	68704833
745	281	3944	-298	-979	-9071	78	84	134	284	18137	284	68704836
741	293	3945	-305	-985	-9087	78	84	134	285	18255	285	68704836
732	271	3941	-309	-979	-9060	78	84	134	286	18373	286	68704837
745	251	3919	-308	-976	-9039	70	82	134	287	18467	287	68704838
730	257	3928	-304	-977	-9061	70	82	134	288	18477	288	68704839
723	275	3941	-306	-974	-9087	70	82	134	289	18595	289	68704841
727	281	3939	-301	-973	-9066	70	82	134	290	18712	290	68704841
734	290	3938	-304	-980	-9083	77	85	131	291	18817	291	68704843
730	261	3918	-306	-978	-9088	77	85	131	292	18846	292	68704843
740	266	3931	-301	-984	-9074	77	85	131	293	18964	293	68704844
743	285	3949	-299	-976	-9075	77	85	131	294	19082	294	68704846
749	285	3940	-297	-971	-9080	65	73	125	295	19176	295	68704846
722	292	3944	-297	-974	-9039	65	73	125	296	19186	296	68704853
716	288	3921	-300	-977	-9054	65	73	125	297	19304	297	68704857
730	279	3920	-305	-979	-9051	65	73	125	298	19421	298	68704857
741	275	3935	-307	-984	-9082	66	74	138	299	19526	299	68704858
739	291	3923	-304	-979	-9084	66	74	138	300	19555	300	68704858
734	279	3950	-307	-976	-9077	66	74	138	301	19673	301	68704863
721	280	3961	-305	-977	-9049	66	74	138	302	19791	302	68704864
728	286	3943	-306	-979	-9065	64	74	120	303	19885	303	68704864
720	269	3945	-306	-979	-9083	64	74	120	304	19895	304	68704870
728	268	3926	-307	-983	-9109	64	74	120	305	20013	305	68704870
735	268	3947	-304	-979	-9091	64	74	120	306	20130	306	68704878
751	271	3927	-307	-979	-9093	54	72	122	307	20235	307	68704879
731	272	3949	-301	-977	-9121	54	72	122	308	20264	308	68704879
731	255	3951	-298	-979	-9093	54	72	122	309	20389	309	68704885
720	296	3956	-298	-979	-9093	61	65	121	310	20394	310	68704885
716	290	3927	-301	-979	-9104	61	65	121	311	20422	311	68704891
719	276	3947	-304	-981	-9081	61	65	121	312	20451	312	68704891
737	278	3938	-304	-981	-9091	49	61	119	313	20545	313	68704891
730	280	3920	-305	-976	-9096	49	61	119	314	20574	314	68704897
734	279	3943	-302	-983	-9052	49	61	119	315	20603	315	68704897
720	264	3929	-302	-982	-9079	55	57	117	316	20697	316	68704903
711	269	3944	-307	-979	-9087	55	57	117	317	20726	317	68704903
733	265	3947	-310	-983	-9091	55	57	117	318	20755	318	68704904
733	259	3957	-307	-980	-9076	41	61	115	319	20849	319	68704909
724	263	3935	-301	-979	-9090	41	61	115	320	20879	320	68704910
716	261	3901	-303	-980	-9071	41	61	115	321	20908	321	68704921
714	265	3934	-304	-978	-9085	51	57	115	322	21002	322	68704924
708	269	3932	-306	-986	-9083	51	57	115	323	21032	323	68704924
723	278	3930	-303	-983	-9073	51	57	115	324	21055	324	68704924
722	286	3945	-301	-980	-9074	35	65	115	325	21149	325	68704925
731	277	3957	-302	-979	-9076	35	65	115	326	21276	326	68704928
719	287	3955	-306	-976	-9046	35	65	115	327	21277	327	68704929
708	284	3961	-306	-974	-9067	35	65	115	328	21395	328	68704932
710	277	3965	-300	-980	-9069	42	54	108	329	21489	329	68704932
718	287	3959	-299	-983	-9089	42	54	108	330	21499	330	68704933
725	298	3959	-302	-982	-9070	42	54	108	331	21616	331	68704941
729	289	3947	-304	-986	-9065	39	55	109	332	21721	332	68704941
737	280	3951	-305	-979	-9113	39	55	109	333	21750	333	68704944
734	281	3949	-304	-976	-9086	39	55	109	334	21868	334	68704945
724	261	3941	-303	-974	-9046	39	55	109	335	21986	335	68704945
727	264	3958	-304	-975	-9067	28	52	108	336	22080	336	68704952
725	284	3946	-305	-981	-9071	28	52	108	337	22085	337	68704952
726	293	3929	-307	-980	-9096	28	52	108	338	22203	338	68704958
725	294	3921	-303	-979	-9081	28	52	108	339	22320	339	68704958
730	279	3933	-303	-982	-9110	25	59	101	340	22430	340	68704959
722	275	3920	-299	-972	-9094	25	59	101	341	22459	341	68704965
714	287	3923	-299	-978	-9072	25	59	101	342	22577	342	68704965
700	297	3958	-304	-983	-9051	25	59	101	343	22695	343	68704968
706	286	3963	-307	-977	-9093	22	54	98	344	22789	344	68704968
715	278	3943	-305	-979	-9096	22	54	98	345	22799	345	68704969
727	282	3939	-305	-987	-9080	22	54	98	346	22917	346	68704976
722	291	3942	-307	-980	-9060	22	54	98	347	23034	347	68704979
722	304	3913	-308	-969	-9095	21	51	97	348	23128	348	68704980
717	272	3921	-304	-979	-9091	21	51	97	349	23129	349	68704980
709	284	3927	-306	-984	-9095	21	51	97	350	23251	350	68704986
722	289	3935	-301	-981	-9099	21	51	97	351	23369	351	68704986
716	285	3911	-302	-986	-9056	22	58	98	352	23463	352	68704986
722	278	3906	-303	-985	-9098	22	58	98	353	23473	353	68704993
710	274	3944	-302	-981	-9096	22	58	98	354	23591	354	68704993
712	274	3943	-304	-974	-9071	21	53	95	355	23706	355	68704997
719	282	3920	-301	-976	-9073	21	53	95	356	23735	356	68705001
724	284	3948	-299	-976	-9066	21	53	95	357	23853	357	68705002
709	301	3923	-300	-974	-9067	21	53	95	358	23971	358	68705004
717	294	3918	-301	-978	-9074	14	54	90	359	24065	359	68705005
725	288	3958	-305	-979	-9064	14	54	90	360	24075	360	68705012
721	283	3944	-306	-984	-9051	14	54	90	361	24193	361	68705012
722	277	3934	-306	-981	-9074	14	54	90	362	24310	362	68705012
727	284	3944	-304	-974	-9102	19	53	89	363	24415	363	68705016
702	286	3911	-306	-979	-9050	19	53	89	364	24444	364	68705016
725	269	3918	-306	-981	-9065	19	53	89	365	24562	365	68705022
718	284	3918	-302	-982	-9065	19	53	89	366	24680	366	68705022
715	288	3897	-300	-980	-9037	11	49	87	367	24774	367	68705023
712	281	3913	-301	-974	-9069	11	49	87	368	24784	368	68705028
709	280	3938	-305	-973	-9052	11	49	87	369	24902	369	68705028
708	279	3927	-306	-976	-9064	11	49	87	370	25019	370	68705036
705	286	3944	-310	-976	-9047	7	47	83	371	25124	371	68705036
705	280	3925	-303	-978	-9050	7	47	83	372	25153	372	68705036
706	271	3924	-300	-978	-9078	7	47	83	373	25271	373	68705040
704	298	3920	-300	-975	-9103	7	47	83	374	25389	374	68705040
718	305	3939	-303	-979	-9077	8	54	80	375	25483	375	68705047
719	291	3956	-303	-974	-9089	8	54	80	376	25493	376	68705047
687	289	3953	-303	-977	-9080	8	54	80	377	25606	377	68705053
710	294	3928	-303	-981	-9098	8	54	80	378	25724	378	68705053
707	311	3901	-303	-979	-9059	5	49	81	379	25834	379	68705053
711	291	3951	-305	-978	-9074	5	49	81	380	25863	380	68705059
715	297	3967	-305	-979	-9055	5	49	81	381	25981	381	68705060
704	297	3944	-302	-979	-9068	5	49	81	382	26099	382	68705064
709	287	3941	-302	-978	-9039	4	48	74	383	26193	383	68705064
709	296	3930	-302	-980	-9054	4	48	74	384	26203	384	68705064
716	287	3929	-308	-972	-9066	4	48	74	385	26321	385	68705072
727	282	3950	-306	-975	-9098	4	48	74	386	26438	386	68705072
714	287	3966	-306	-980	-9071	2	54	80	387	26543	387	68705076
732	284	3939	-300	-970	-9073	2	54	80	388	26572	388	68705076
736	298	3920	-302	-978	-9048	2	54	80	389	26690	389	68705076
707	301	3904	-303	-980	-9065	2	54	80	390	26808	390	68705083
708	280	3934	-307	-978	-9050	0	50	78	391	26902	391	68705083
716	271	3945	-307	-984	-9068	0	50	78	392	26912	392	68705089
704	282	3917	-307	-981	-9056	0	50	78	393	27030	393	68705090
715	283	3946	-301	-977	-9083	0	50	78	394	27147	394	68705090
714	294	3940	-298	-979	-9077	0	56	78	395	27252	395	68705096
701	292	3942	-302	-977	-9050	0	56	78	396	27281	396	68705096
702	277	3929	-303	-977	-9081	0	56	78	397	27399	397	68705099
706	289	3928	-302	-979	-9091	0	56	78	398	27517	398	68705100
699	283	3940	-301	-977	-9084	-3	59	77	399	27611	399	68705101
703	284	3930	-298	-979	-9071	-3	59	77	400	27621	400	68705107
696	279	3942	-306	-981	-9073	-3	59	77	401	27739	401	68705107
708	283	3932	-305	-975	-9060	-3	59	77	402	27856	402	68705113
722	284	3932	-307	-974	-9053	-4	58	72	403	27961	403	68705113
713	273	3929	-301	-979	-9055	-4	58	72	404	27990	404	68705114
702	296	3917	-299	-974	-9082	-4	58	72	405	28108	405	68705120
710	294	3921	-298	-979	-9091	-4	58	72	406	28225	406	68705120
713	293	3952	-301	-983	-9079	-7	57	81	407	28319	407	68705123
708	306	3941	-300	-981	-9062	-7	57	81	408	28329	408	68705128
700	300	3931	-302	-984	-9080	-7	57	81	409	28447	409	68705132
712	298	3935	-300	-982	-9078	-7	57	81	410	28564	410	68705132
705	295	3921	-302	-977	-9067	-14	54	76	411	28669	411	68705132
697	263	3950	-306	-978	-9059	-14	54	76	412	28698	412	68705138
702	281	3937	-304	-975	-9052	-14	54	76	413	28816	413	68705138
712	293	3940	-300	-977	-9048	-14	54	76	414	28934	414	68705142
701	296	3930	-300	-976	-9085	-17	63	75	415	29028	415	68705143
697	305	3907	-306	-969	-9065	-17	63	75	416	29038	416	68705144
705	287	3952	-308	-974	-9077	-17	63	75	417	29156	417	68705151
700	266	3953	-306	-982	-9082	-17	63	75	418	29273	418	68705151
681	272	3934	-308	-979	-9091	-17	59	75	419	29378	419	68705157
707	287	3937	-302	-970	-9071	-17	59	75	420	29412	420	68705157
701	294	3935	-303	-969	-9089	-17	59	75	421	29441	421	68705157
686	279	3935	-305	-970	-9053	-25	63	75	422	29535	422	68705163
681	269	3930	-303	-980	-9039	-25	63	75	423	29565	423	68705163
682	272	3924	-304	-975	-9045	-25	63	75	424	29594	424	68705169
691	286	3947	-305	-977	-9046	-26	68	76	425	29682	425	68705170
693	288	3946	-306	-974	-9046	-26	68	76	426	29809	426	68705171
683	282	3967	-305	-978	-9060	-26	68	76	427	29810	427	68705173
691	282	3943	-308	-981	-9063	-26	68	76	428	29928	428	68705173
694	286	3944	-306	-980	-9089	-31	65	77	429	30022	429	68705181
705	287	3946	-303	-975	-9043	-31	65	77	430	30032	430	68705181
699	283	3932	-301	-975	-9046	-31	65	77	431	30149	431	68705181
702	278	3943	-302	-977	-9043	-38	66	74	432	30254	432	68705187
701	268	3938	-305	-982	-9049	-38	66	74	433	30283	433	68705192
716	277	3939	-302	-980	-9060	-38	66	74	434	30401	434	68705193
716	281	3940	-300	-977	-9075	-38	66	74	435	30519	435	68705201
706	280	3938	-302	-979	-9048	-26	68	72	436	30613	436	68705201
689	282	3914	-305	-979	-9059	-26	68	72	437	30623	437	68705202
706	281	3927	-305	-978	-9086	-26	68	72	438	30741	438	68705202
709	289	3917	-306	-976	-9090	-26	68	72	439	30858	439	68705206
703	295	3919	-303	-979	-9084	-37	65	75	440	30963	440	68705206
693	290	3924	-302	-972	-9079	-37	65	75	441	30992	441	68705209
701	283	3911	-308	-983	-9039	-37	65	75	442	31110	442	68705210
666	280	3938	-310	-984	-9056	-37	65	75	443	31228	443	68705210
678	287	3906	-309	-981	-9075	-39	69	71	444	31322	444	68705217
679	299	3903	-305	-976	-9064	-39	69	71	445	31332	445	68705217
692	295	3922	-299	-973	-9074	-39	69	71	446	31450	446	68705224
688	300	3930	-301	-974	-9073	-39	69	71	447	31567	447	68705225
691	291	3922	-304	-975	-9055	-37	77	77	448	31672	448	68705225
709	281	3952	-307	-980	-9091	-37	77	77	449	31701	449	68705228
707	280	3923	-304	-976	-9082	-37	77	77	450	31819	450	68705228
699	284	3920	-300	-979	-9065	-37	77	77	451	31937	451	68705236
685	280	3943	-302	-973	-9087	-41	73	77	452	32031	452	68705236
675	287	3954	-306	-974	-9081	-41	73	77	453	32042	453	68705236
696	289	3935	-302	-983	-9075	-41	73	77	454	32159	454	68705242
698	281	3942	-304	-984	-9075	-41	73	77	455	32276	455	68705242
693	281	3938	-303	-975	-9085	-37	81	79	456	32381	456	68705248
690	296	3934	-302	-978	-9096	-37	81	79	457	32410	457	68705248
693	286	3940	-304	-982	-9076	-37	81	79	458	32528	458	68705248
698	285	3940	-304	-985	-9075	-37	81	79	459	32646	459	68705252
713	293	3948	-303	-980	-9071	-52	74	76	460	32740	460	68705256
698	286	3953	-302	-972	-9057	-52	74	76	461	32750	461	68705259
701	285	3949	-302	-976	-9081	-52	74	76	462	32868	462	68705260
689	292	3930	-300	-981	-9066	-52	74	76	463	32985	463	68705261
697	274	3935	-301	-978	-9072	-58	80	78	464	33090	464	68705267
698	272	3960	-308	-979	-9093	-58	80	78	465	33119	465	68705267
698	283	3945	-301	-973	-9060	-58	80	78	466	33244	466	68705274
686	281	3938	-301	-973	-9060	-46	88	76	467	33249	467	68705275
681	275	3923	-304	-975	-9070	-46	88	76	468	33277	468	68705281
689	262	3922	-306	-977	-9073	-46	88	76	469	33306	469	68705281
690	268	3932	-304	-980	-9072	-54	82	80	470	33400	470	68705281
699	266	3935	-302	-978	-9049	-54	82	80	471	33430	471	68705284
692	274	3938	-306	-976	-9064	-54	82	80	472	33458	472	68705285
690	276	3943	-304	-983	-9062	-61	91	79	473	33552	473	68705293
709	273	3935	-305	-978	-9083	-61	91	79	474	33582	474	68705293
674	279	3941	-306	-981	-9091	-61	91	79	475	33611	475	68705294
680	276	3959	-305	-980	-9073	-56	92	80	476	33705	476	68705299
685	286	3960	-304	-977	-9094	-56	92	80	477	33734	477	68705300
684	275	3935	-306	-981	-9080	-56	92	80	478	33763	478	68705306
680	269	3961	-303	-981	-9049	-64	100	72	479	33857	479	68705306
690	269	3947	-300	-982	-9084	-64	100	72	480	33887	480	68705306
695	284	3952	-301	-979	-9079	-64	100	72	481	33915	481	68705313
691	290	3953	-297	-972	-9055	-64	100	80	482	34009	482	68705313
699	287	3952	-305	-981	-9041	-64	100	80	483	34038	483	68705319
704	290	3946	-306	-983	-9072	-64	100	80	484	34067	484	68705320
693	280	3972	-303	-982	-9090	-68	110	80	485	34161	485	68705320
694	281	3938	-306	-984	-9076	-68	110	80	486	34191	486	68705323
680	271	3943	-305	-978	-9076	-68	110	80	487	34219	487	68705323
686	277	3944	-307	-970	-9067	-66	104	76	488	34313	488	68705332
679	278	3965	-308	-984	-9067	-66	104	76	489	34342	489	68705336
682	267	3937	-307	-978	-9057	-66	104	76	490	34371	490	68705337
703	269	3947	-306	-976	-9060	-68	110	76	491	34465	491	68705338
694	271	3946	-306	-976	-9043	-68	110	76	492	34494	492	68705338
690	257	3946	-307	-976	-9040	-68	110	76	493	34523	493	68705344
677	255	3940	-303	-981	-9050	-69	113	83	494	34617	494	68705345
658	262	3943	-303	-979	-9079	-69	113	83	495	34646	495	68705352
670	295	3940	-301	-978	-9056	-69	113	83	496	34675	496	68705352
672	284	3917	-304	-980	-9047	-74	118	80	497	34769	497	68705352
685	282	3925	-304	-971	-9099	-74	118	80	498	34798	498	68705356
681	282	3935	-307	-978	-9082	-74	118	80	499	34827	499	68705356
676	262	3928	-302	-981	-9086	-73	121	81	500	34921	500	68705363
676	265	3930	-300	-971	-9065	-73	121	81	501	34950	501	68705363
669	274	3929	-302	-974	-9076	-73	121	81	502	34979	502	68705364
684	270	3921	-302	-977	-9084	-70	122	80	503	35073	503	68705370
680	259	3939	-300	-986	-9072	-70	122	80	504	35102	504	68705371
699	270	3946	-297	-989	-9069	-70	122	80	505	35131	505	68705377
696	269	3938	-301	-980	-9085	-73	129	77	506	35225	506	68705377
700	267	3947	-303	-981	-9063	-73	129	77	507	35254	507	68705377
671	272	3944	-302	-983	-9047	-73	129	77	508	35283	508	68705381
686	272	3940	-302	-975	-9063	-71	127	83	509	35371	509	68705382
676	278	3927	-298	-974	-9089	-71	127	83	510	35498	510	68705388
668	281	3929	-301	-975	-9056	-71	127	83	511	35625	511	68705388
673	268	3942	-305	-976	-9075	-71	127	83	512	35743	512	68705388
685	276	3963	-309	-977	-9087	-70	130	82	513	35837	513	68705392
686	265	3957	-311	-980	-9072	-70	130	82	514	35847	514	68705392
691	245	3946	-307	-976	-9044	-70	130	82	515	35965	515	68705400
695	257	3941	-302	-976	-9067	-76	136	80	516	36075	516	68705401
676	284	3961	-300	-976	-9073	-76	136	80	517	36104	517	68705401
684	289	3956	-308	-981	-9097	-76	136	80	518	36222	518	68705404
678	272	3916	-306	-986	-9089	-76	136	80	519	36340	519	68705405
690	256	3937	-303	-984	-9080	-75	141	83	520	36429	520	68705412
691	264	3919	-299	-979	-9069	-75	141	83	521	36439	521	68705412
696	254	3919	-302	-980	-9078	-75	141	83	522	36557	522	68705419
693	257	3926	-302	-977	-9061	-75	141	83	523	36674	523	68705419
689	251	3934	-304	-978	-9079	-70	148	82	524	36784	524	68705420
700	255	3925	-297	-982	-9082	-70	148	82	525	36813	525	68705423
697	267	3936	-299	-976	-9056	-70	148	82	526	36931	526	68705423
689	273	3934	-299	-978	-9053	-70	148	82	527	37049	527	68705429
678	269	3949	-300	-974	-9073	-68	150	82	528	37143	528	68705429
690	276	3946	-304	-972	-9073	-68	150	82	529	37153	529	68705430
685	270	3958	-304	-981	-9096	-68	150	82	530	37271	530	68705438
675	271	3951	-300	-984	-9080	-68	150	82	531	37388	531	68705438
679	263	3951	-299	-980	-9088	-68	158	90	532	37493	532	68705442
693	263	3945	-306	-980	-9074	-68	158	90	533	37522	533	68705442
681	274	3941	-305	-982	-9072	-68	158	90	534	37640	534	68705442
695	262	3938	-310	-981	-9044	-68	158	90	535	37758	535	68705470
701	253	3930	-306	-986	-9065	-70	164	84	536	37852	536	68705471
694	262	3943	-300	-976	-9060	-70	164	84	537	37862	537	68705473
680	271	3929	-301	-975	-9042	-70	164	84	538	37980	538	68705473
670	275	3922	-303	-982	-9049	-70	164	84	539	38097	539	68705473
676	264	3912	-310	-978	-9056	-69	167	85	540	38202	540	68705475
701	247	3923	-308	-979	-9049	-69	167	85	541	38230	541	68705476
691	253	3917	-303	-976	-9082	-69	167	85	542	38348	542	68705478
681	258	3924	-303	-979	-9077	-69	167	85	543	38466	543	68705478
681	252	3926	-307	-982	-9051	-65	173	83	544	38560	544	68705478
678	247	3926	-307	-981	-9066	-65	173	83	545	38570	545	68705480
693	251	3955	-309	-980	-9075	-65	173	83	546	38688	546	68705481
693	252	3954	-307	-979	-9082	-65	173	83	547	38805	547	68705483
688	249	3930	-304	-981	-9063	-64	180	82	548	38910	548	68705483
695	259	3915	-302	-973	-9072	-64	180	82	549	38939	549	68705483
698	262	3941	-305	-982	-9058	-64	180	82	550	39057	550	68705485
680	256	3971	-303	-981	-9079	-64	180	82	551	39175	551	68705486
679	257	3955	-302	-982	-9053	-63	183	89	552	39269	552	68705489
681	255	3947	-300	-987	-9053	-63	183	89	553	39279	553	68705490
701	274	3927	-301	-984	-9042	-63	183	89	554	39397	554	68705497
698	254	3921	-302	-981	-9070	-63	183	89	555	39514	555	68705497
675	252	3912	-300	-977	-9056	-59	185	85	556	39619	556	68705497
687	258	3943	-299	-973	-9061	-59	185	85	557	39648	557	68705503
663	259	3954	-297	-967	-9071	-59	185	85	558	39766	558	68705503
684	272	3938	-301	-975	-9079	-59	185	85	559	39884	559	68705507
696	269	3931	-301	-978	-9062	-56	192	88	560	39972	560	68705507
700	242	3920	-305	-982	-9067	-56	192	88	561	39983	561	68705507
692	245	3954	-303	-979	-9059	-56	192	88	562	40101	562	68705516
699	248	3938	-299	-972	-9072	-56	192	88	563	40218	563	68705516
692	261	3922	-303	-972	-9076	-56	194	88	564	40328	564	68705519
685	274	3938	-303	-977	-9081	-56	194	88	565	40357	565	68705519
691	248	3946	-306	-985	-9079	-56	194	88	566	40475	566	68705520
690	245	3943	-307	-987	-9078	-56	194	88	567	40593	567	68705527
696	240	3932	-300	-985	-9063	-54	202	86	568	40687	568	68705528
681	241	3963	-301	-976	-9054	-54	202	86	569	40697	569	68705534
677	244	3961	-308	-982	-9031	-54	202	86	570	40815	570	68705534
700	244	3941	-311	-983	-9069	-54	202	86	571	40932	571	68705535
684	240	3921	-310	-978	-9065	-50	198	94	572	41037	572	68705538
687	256	3918	-303	-980	-9077	-50	198	94	573	41066	573	68705538
690	258	3946	-303	-978	-9090	-50	198	94	574	41184	574	68705545
685	269	3937	-304	-985	-9075	-50	198	94	575	41302	575	68705546
689	259	3941	-301	-983	-9087	-40	206	92	576	41396	576	68705546
703	241	3933	-300	-979	-9068	-40	206	92	577	41406	577	68705549
694	238	3942	-298	-976	-9057	-40	206	92	578	41524	578	68705550
678	257	3936	-297	-980	-9063	-40	206	92	579	41641	579	68705558
670	263	3934	-302	-978	-9087	-45	205	91	580	41746	580	68705564
691	260	3926	-306	-980	-9062	-45	205	91	581	41775	581	68705573
694	249	3935	-304	-980	-9078	-45	205	91	582	41893	582	68705573
699	247	3923	-304	-975	-9074	-45	205	91	583	42011	583	68705576
690	258	3922	-299	-976	-9074	-38	208	94	584	42105	584	68705576
673	265	3961	-295	-978	-9053	-38	208	94	585	42115	585	68705577
685	252	3939	-304	-972	-9095	-38	208	94	586	42233	586	68705577
684	255	3933	-309	-982	-9086	-38	208	94	587	42350	587	68705577
687	258	3948	-309	-987	-9070	-34	212	90	588	42455	588	68705577
721	261	3936	-303	-981	-9075	-34	212	90	589	42484	589	68705582
704	259	3936	-303	-975	-9056	-34	212	90	590	42602	590	68705582
684	243	3947	-304	-975	-9042	-34	212	90	591	42720	591	68705585
671	241	3929	-304	-981	-9075	-31	211	93	592	42814	592	68705592
674	240	3918	-307	-988	-9058	-31	211	93	593	42824	593	68705593
685	242	3955	-309	-983	-9058	-31	211	93	594	42942	594	68705594
698	248	3949	-305	-982	-9058	-31	211	93	595	43059	595	68705594
696	246	3931	-301	-980	-9098	-21	221	95	596	43164	596	68705598
694	236	3931	-306	-974	-9100	-21	221	95	597	43193	597	68705598
684	224	3957	-303	-987	-9074	-21	221	95	598	43311	598	68705598
691	247	3947	-302	-980	-9065	-21	221	95	599	43428	599	68705605
699	247	3946	-300	-973	-9093	-24	226	92	600	43522	600	68705606
698	249	3947	-298	-974	-9070	-24	226	92	601	43532	601	68705612
681	250	3940	-300	-978	-9068	-24	226	92	602	43650	602	68705612
702	242	3922	-303	-978	-9061	-24	226	92	603	43767	603	68705612
708	233	3945	-305	-982	-9077	-15	223	95	604	43872	604	68705618
697	253	3930	-303	-979	-9079	-15	223	95	605	43900	605	68705618
685	266	3956	-302	-977	-9071	-15	223	95	606	44018	606	68705622
694	256	3939	-304	-979	-9065	-15	223	95	607	44136	607	68705622
705	261	3910	-305	-977	-9105	-8	230	100	608	44230	608	68705622
698	265	3923	-304	-977	-9062	-8	230	100	609	44240	609	68705630
706	249	3927	-304	-982	-9068	-8	230	100	610	44358	610	68705630
708	242	3926	-302	-978	-9050	-8	230	100	611	44475	611	68705636
674	238	3927	-303	-971	-9064	-8	220	96	612	44580	612	68705636
692	231	3937	-303	-979	-9100	-8	220	96	613	44609	613	68705642
693	234	3931	-305	-989	-9090	-8	220	96	614	44727	614	68705642
716	258	3936	-305	-995	-9063	-8	220	96	615	44845	615	68705642
713	250	3916	-303	-988	-9089	-3	229	101	616	44939	616	68705646
720	240	3905	-305	-978	-9087	-3	229	101	617	44949	617	68705646
701	232	3934	-309	-975	-9068	-3	229	101	618	45067	618	68705655
690	236	3954	-305	-976	-9073	-3	229	101	619	45184	619	68705655
686	236	3950	-302	-974	-9071	-3	239	99	620	45289	620	68705655
704	242	3963	-300	-982	-9032	-3	239	99	621	45318	621	68705661
705	252	3936	-309	-981	-9076	-3	239	99	622	45436	622	68705662
724	252	3935	-310	-981	-9061	-3	239	99	623	45554	623	68705664
728	233	3952	-306	-979	-9055	6	226	102	624	45647	624	68705665
711	238	3945	-305	-972	-9073	6	226	102	625	45658	625	68705665
713	244	3924	-306	-970	-9074	6	226	102	626	45776	626	68705673
690	242	3904	-303	-975	-9090	6	226	102	627	45893	627	68705674
682	246	3949	-301	-980	-9085	5	237	99	628	45998	628	68705677
711	231	3933	-305	-981	-9085	5	237	99	629	46026	629	68705677
718	230	3919	-302	-980	-9072	5	237	99	630	46144	630	68705678
699	243	3929	-299	-973	-9100	5	237	99	631	46262	631	68705685
690	241	3909	-298	-974	-9094	13	233	109	632	46356	632	68705685
699	238	3931	-301	-981	-9106	13	233	109	633	46361	633	68705691
701	231	3925	-304	-980	-9093	13	233	109	634	46479	634	68705692
706	237	3906	-302	-985	-9092	13	233	109	635	46596	635	68705693
720	242	3921	-302	-990	-9085	18	232	98	636	46707	636	68705697
700	243	3936	-299	-974	-9070	18	232	98	637	46736	637	68705698
704	258	3936	-305	-981	-9082	18	232	98	638	46854	638	68705701
693	260	3939	-306	-982	-9073	18	232	98	639	46971	639	68705702
693	252	3928	-308	-981	-9067	28	232	108	640	47065	640	68705708
703	236	3929	-305	-982	-9093	28	232	108	641	47075	641	68705709
707	251	3919	-305	-985	-9074	28	232	108	642	47193	642	68705710
716	243	3933	-304	-977	-9079	28	232	108	643	47310	643	68705715
718	252	3941	-304	-976	-9061	23	235	107	644	47415	644	68705716
719	220	3961	-305	-983	-9062	23	235	107	645	47444	645	68705721
722	233	3973	-299	-974	-9081	23	235	107	646	47562	646	68705724
711	249	3950	-299	-978	-9094	23	235	107	647	47680	647	68705725
702	251	3974	-303	-978	-9056	32	232	108	648	47774	648	68705726
712	253	3971	-303	-975	-9077	32	232	108	649	47784	649	68705727
723	237	3968	-299	-976	-9063	32	232	108	650	47902	650	68705733
711	241	3956	-300	-974	-9076	32	232	108	651	48019	651	68705744
717	241	3945	-302	-971	-9042	38	228	106	652	48124	652	68705745
698	242	3942	-302	-978	-9077	38	228	106	653	48153	653	68705745
699	245	3932	-302	-975	-9074	38	228	106	654	48271	654	68705745
701	248	3944	-301	-984	-9080	38	228	106	655	48389	655	68705745
714	233	3938	-303	-977	-9071	50	236	100	656	48483	656	68705746
718	231	3947	-302	-971	-9104	50	236	100	657	48493	657	68705746
703	243	3942	-299	-979	-9091	50	236	100	658	48611	658	68705751
713	243	3934	-300	-979	-9105	50	236	100	659	48728	659	68705751
710	242	3948	-304	-976	-9100	49	233	107	660	48833	660	68705757
702	244	3936	-302	-980	-9080	49	233	107	661	48862	661	68705757
693	238	3956	-298	-977	-9084	49	233	107	662	48980	662	68705757
714	244	3916	-299	-982	-9081	49	233	107	663	49098	663	68705761
714	234	3941	-299	-987	-9072	50	230	110	664	49192	664	68705761
720	242	3962	-304	-979	-9090	50	230	110	665	49202	665	68705769
726	247	3945	-306	-978	-9080	50	230	110	666	49320	666	68705770
706	233	3945	-303	-981	-9057	50	230	110	667	49437	667	68705770
705	234	3945	-302	-984	-9090	61	231	109	668	49542	668	68705776
697	248	3952	-298	-982	-9071	61	231	109	669	49571	669	68705776
719	257	3969	-300	-979	-9080	61	231	109	670	49689	670	68705779
735	252	3945	-305	-980	-9089	61	231	109	671	49807	671	68705780
720	244	3938	-304	-979	-9088	63	229	105	672	49901	672	68705787
705	243	3971	-301	-976	-9076	63	229	105	673	49911	673	68705787
712	232	3961	-300	-975	-9100	63	229	105	674	50029	674	68705788
706	245	3964	-303	-978	-9085	63	229	105	675	50146	675	68705793
716	244	3962	-303	-981	-9097	75	229	111	676	50251	676	68705794
724	238	3927	-306	-974	-9092	75	229	111	677	50280	677	68705799
727	236	3933	-296	-976	-9075	75	229	111	678	50398	678	68705800
707	254	3925	-302	-971	-9058	75	229	111	679	50510	679	68705802
710	251	3938	-306	-974	-9067	71	219	109	680	50604	680	68705803
698	246	3929	-306	-977	-9079	71	219	109	681	50614	681	68705804
696	222	3929	-304	-977	-9092	71	219	109	682	50732	682	68705812
712	234	3950	-305	-975	-9067	71	219	109	683	50849	683	68705812
722	242	3956	-303	-979	-9063	78	224	106	684	50959	684	68705813
717	269	3946	-299	-976	-9067	78	224	106	685	50988	685	68705816
725	265	3936	-305	-984	-9103	78	224	106	686	51106	686	68705817
703	248	3928	-304	-980	-9070	78	224	106	687	51224	687	68705823
714	240	3953	-304	-979	-9073	82	214	110	688	51318	688	68705824
711	245	3944	-304	-978	-9055	82	214	110	689	51328	689	68705824
704	252	3923	-299	-982	-9082	82	214	110	690	51446	690	68705830
710	256	3922	-300	-976	-9084	82	214	110	691	51563	691	68705830
705	264	3921	-302	-976	-9081	89	209	113	692	51668	692	68705836
727	236	3955	-299	-984	-9089	89	209	113	693	51697	693	68705837
734	246	3966	-302	-983	-9079	89	209	113	694	51815	694	68705837
717	260	3939	-301	-976	-9055	89	209	113	695	51933	695	68705840
710	250	3943	-299	-972	-9086	95	213	117	696	52027	696	68705841
715	232	3938	-300	-974	-9069	95	213	117	697	52037	697	68705847
718	251	3925	-301	-982	-9068	95	213	117	698	52155	698	68705848
719	256	3923	-303	-978	-9043	95	213	117	699	52272	699	68705849
707	259	3934	-304	-973	-9053	95	205	117	700	52377	700	68705854
702	250	3943	-307	-982	-9078	95	205	117	701	52406	701	68705854
709	248	3948	-304	-980	-9081	95	205	117	702	52524	702	68705862
721	253	3939	-299	-978	-9093	95	205	117	703	52642	703	68705864
729	250	3949	-300	-978	-9107	110	206	114	704	52736	704	68705865
721	258	3948	-302	-976	-9089	110	206	114	705	52746	705	68705866
704	242	3954	-302	-980	-9096	110	206	114	706	52864	706	68705867
703	244	3950	-307	-982	-9092	110	206	114	707	52981	707	68705872
716	241	3955	-306	-981	-9103	104	200	120	708	53086	708	68705873
730	232	3958	-306	-977	-9055	104	200	120	709	53115	709	68705876
718	242	3936	-296	-976	-9060	104	200	120	710	53233	710	68705877
697	247	3916	-298	-978	-9038	104	200	120	711	53351	711	68705877
709	240	3957	-302	-984	-9060	105	191	117	712	53445	712	68705883
725	253	3917	-300	-983	-9078	105	191	117	713	53455	713	68705884
735	262	3928	-303	-977	-9062	105	191	117	714	53573	714	68705891
729	250	3950	-303	-980	-9081	105	191	117	715	53690	715	68705893
732	252	3939	-300	-980	-9094	119	189	121	716	53795	716	68705893
715	270	3947	-304	-977	-9076	119	189	121	717	53824	717	68705895
724	265	3941	-306	-980	-9078	119	189	121	718	53942	718	68705896
722	265	3941	-303	-977	-9101	119	189	121	719	54059	719	68705901
731	252	3893	-300	-983	-9092	120	182	128	720	54153	720	68705903
727	245	3919	-302	-981	-9095	120	182	128	721	54163	721	68705904
724	238	3938	-301	-974	-9066	120	182	128	722	54281	722	68705908
724	246	3957	-302	-976	-9097	120	182	128	723	54398	723	68705909
713	228	3955	-302	-982	-9081	126	184	122	724	54503	724	68705914
730	229	3958	-299	-971	-9067	126	184	122	725	54532	725	68705915
735	243	3951	-299	-971	-9053	126	184	122	726	54650	726	68705915
724	236	3948	-302	-967	-9062	126	184	122	727	54768	727	68705918
749	240	3938	-301	-974	-9034	120	180	134	728	54862	728	68705919
743	247	3931	-299	-981	-9068	120	180	134	729	54872	729	68705926
726	253	3938	-302	-979	-9035	120	180	134	730	54990	730	68705927
738	255	3934	-300	-977	-9060	120	180	134	731	55107	731	68705928
716	260	3926	-300	-977	-9041	130	170	130	732	55212	732	68705934
717	261	3948	-300	-977	-9077	130	170	130	733	55241	733	68705943
728	264	3938	-310	-985	-9088	130	170	130	734	55359	734	68705944
736	247	3931	-305	-982	-9061	130	170	130	735	55477	735	68705944
724	239	3959	-303	-979	-9054	135	163	135	736	55571	736	68705945
717	239	3942	-300	-974	-9060	135	163	135	737	55581	737	68705945
733	243	3932	-299	-978	-9058	135	163	135	738	55699	738	68705946
723	257	3912	-297	-974	-9089	135	163	135	739	55816	739	68705951
705	254	3935	-298	-972	-9100	128	162	136	740	55921	740	68705952
715	242	3959	-303	-987	-9082	128	162	136	741	55950	741	68705954
736	231	3935	-304	-981	-9078	128	162	136	742	56068	742	68705955
737	246	3923	-297	-976	-9081	128	162	136	743	56186	743	68705955
727	260	3929	-295	-972	-9071	139	155	135	744	56280	744	68705962
727	245	3938	-295	-975	-9066	139	155	135	745	56290	745	68705963
729	273	3936	-297	-977	-9067	139	155	135	746	56408	746	68705968
721	274	3935	-298	-977	-9108	139	155	135	747	56525	747	68705974
709	276	3923	-301	-975	-9095	127	149	139	748	56630	748	68705974
735	270	3939	-304	-985	-9067	127	149	139	749	56659	749	68705975
735	258	3937	-303	-971	-9077	127	149	139	750	56777	750	68705976
733	250	3948	-303	-974	-9066	127	149	139	751	56895	751	68705978
728	256	3942	-302	-977	-9096	132	138	138	752	56989	752	68705981
721	262	3921	-302	-974	-9083	132	138	138	753	56999	753	68705982
724	257	3939	-303	-975	-9063	132	138	138	754	57117	754	68705987
713	256	3930	-306	-984	-9064	132	138	138	755	57234	755	68705987
705	240	3943	-312	-985	-9091	131	137	151	756	57339	756	68705995
725	232	3943	-305	-980	-9051	131	137	151	757	57368	757	68705995
732	251	3963	-296	-972	-9085	131	137	151	758	57486	758	68705995
730	256	3938	-298	-973	-9057	131	137	151	759	57604	759	68705998
718	261	3915	-297	-976	-9079	119	129	147	760	57698	760	68705998
713	269	3940	-301	-982	-9102	119	129	147	761	57708	761	68706002
706	265	3946	-304	-982	-9091	119	129	147	762	57826	762	68706002
707	257	3931	-305	-980	-9093	119	129	147	763	57943	763	68706002
718	257	3913	-303	-978	-9080	125	117	155	764	58037	764	68706009
721	264	3940	-302	-978	-9087	125	117	155	765	58038	765	68706010
728	255	3947	-306	-985	-9060	125	117	155	766	58166	766	68706013
723	267	3947	-302	-982	-9089	125	117	155	767	58284	767	68706013
714	273	3911	-300	-975	-9085	116	124	152	768	58378	768	68706020
717	261	3917	-302	-978	-9089	116	124	152	769	58388	769	68706021
733	262	3941	-304	-987	-9085	116	124	152	770	58505	770	68706021
720	261	3966	-306	-981	-9104	116	124	152	771	58623	771	68706024
717	252	3938	-305	-985	-9079	115	119	155	772	58712	772	68706024
722	255	3961	-303	-983	-9063	115	119	155	773	58727	773	68706032
714	274	3945	-301	-976	-9110	115	119	155	774	58845	774	68706032
731	273	3931	-304	-977	-9063	115	119	155	775	58963	775	68706032
740	287	3934	-306	-979	-9082	116	112	152	776	59057	776	68706038
740	276	3959	-301	-978	-9059	116	112	152	777	59067	777	68706039
734	266	3972	-301	-976	-9073	116	112	152	778	59075	778	68706044
740	260	3923	-300	-975	-9065	104	102	146	779	59080	779	68706044
732	259	3952	-298	-975	-9059	104	102	146	780	59090	780	68706045
712	273	3951	-302	-978	-9065	104	102	146	781	59096	781	68706050
718	271	3936	-304	-983	-9075	106	106	154	782	59101	782	68706051
735	275	3942	-306	-983	-9085	106	106	154	783	59112	783	68706057
729	257	3932	-301	-980	-9082	106	106	154	784	59117	784	68706057
715	259	3928	-300	-976	-9086	98	94	154	785	59122	785	68706057
716	279	3941	-295	-973	-9044	98	94	154	786	59133	786	68706063
714	277	3944	-302	-977	-9072	98	94	154	787	59139	787	68706063
717	267	3950	-307	-978	-9072	96	104	148	788	59144	788	68706071
728	260	3961	-304	-978	-9084	96	104	148	789	59154	789	68706071
722	273	3959	-301	-979	-9060	96	104	148	790	59160	790	68706071
731	282	3970	-298	-979	-9076	84	88	148	791	59165	791	68706077
740	279	3947	-299	-981	-9045	84	88	148	792	59175	792	68706077
735	280	3927	-297	-971	-9073	84	88	148	793	59181	793	68706081
723	293	3945	-297	-979	-9073	89	97	141	794	59186	794	68706081
705	273	3958	-299	-980	-9085	89	97	141	795	59197	795	68706081
716	266	3979	-302	-978	-9086	89	97	141	796	59202	796	68706111
728	258	3938	-305	-985	-9100	87	93	149	797	59208	797	68706111
725	271	3952	-303	-985	-9095	87	93	149	798	59218	798	68706113
735	275	3960	-301	-975	-9090	87	93	149	799	59224	799	68706114
727	266	3948	-300	-978	-9096	76	82	134	800	59229	800	68706116
719	281	3931	-298	-981	-9096	76	82	134	801	59239	801	68706116
714	282	3943	-307	-985	-9093	76	82	134	802	59245	802	68706116
735	261	3946	-309	-986	-9083	77	87	139	803	59250	803	68706118
739	262	3966	-302	-979	-9095	77	87	139	804	59261	804	68706119
728	267	3953	-295	-981	-9067	77	87	139	805	59266	805	68706121
729	298	3956	-296	-981	-9098	76	76	128	806	59271	806	68706121
721	285	3939	-302	-974	-9102	76	76	128	807	59282	807	68706121
704	280	3957	-308	-985	-9064	76	76	128	808	59288	808	68706123
726	272	3929	-306	-980	-9066	69	83	141	809	59293	809	68706124
714	265	3925	-307	-979	-9092	69	83	141	810	59298	810	68706127
743	265	3927	-300	-980	-9063	69	83	141	811	59401	811	68706127
733	270	3932	-301	-970	-9070	69	83	141	812	59402	812	68706128
725	269	3952	-299	-974	-9079	63	73	125	813	59496	813	68706131
715	276	3958	-301	-978	-9089	63	73	125	814	59506	814	68706131
722	278	3943	-305	-983	-9082	63	73	125	815	59624	815	68706139
731	268	3943	-298	-981	-9048	63	73	125	816	59741	816	68706141
740	265	3945	-300	-981	-9083	64	74	132	817	59846	817	68706141
732	271	3940	-301	-974	-9077	64	74	132	818	59875	818	68706143
739	268	3930	-294	-982	-9075	64	74	132	819	59993	819	68706144
722	268	3947	-294	-976	-9068	64	74	132	820	60111	820	68706152
735	295	3944	-298	-978	-9073	67	73	127	821	60205	821	68706153
727	286	3930	-300	-984	-9063	67	73	127	822	60215	822	68706153
722	275	3930	-302	-979	-9091	67	73	127	823	60333	823	68706158
730	283	3923	-304	-978	-9085	67	73	127	824	60450	824	68706159
732	277	3945	-304	-978	-9087	55	61	121	825	60555	825	68706162
714	265	3949	-302	-973	-9113	55	61	121	826	60584	826	68706162
731	279	3942	-306	-981	-9089	55	61	121	827	60702	827	68706168
730	284	3937	-307	-983	-9078	55	61	121	828	60820	828	68706168
733	274	3935	-307	-982	-9083	62	66	124	829	60914	829	68706169
735	265	3939	-307	-984	-9042	62	66	124	830	60924	830	68706174
721	273	3936	-302	-981	-9063	62	66	124	831	61042	831	68706175
716	270	3936	-297	-975	-9054	62	66	124	832	61159	832	68706182
729	274	3951	-295	-974	-9084	52	66	114	833	61264	833	68706182
723	280	3944	-300	-978	-9084	52	66	114	834	61293	834	68706182
734	279	3936	-300	-979	-9097	52	66	114	835	61411	835	68706185
714	279	3925	-301	-980	-9118	52	66	114	836	61528	836	68706186
722	283	3926	-301	-975	-9114	58	64	124	837	61622	837	68706193
705	292	3932	-296	-972	-9094	58	64	124	838	61632	838	68706193
714	290	3931	-297	-973	-9081	58	64	124	839	61750	839	68706194
721	296	3940	-300	-978	-9079	58	64	124	840	61867	840	68706201
722	294	3964	-302	-981	-9080	42	58	114	841	61972	841	68706201
721	285	3927	-303	-984	-9090	42	58	114	842	62001	842	68706205
719	289	3930	-304	-981	-9078	42	58	114	843	62119	843	68706206
719	287	3930	-303	-981	-9088	42	58	114	844	62237	844	68706206
705	269	3933	-304	-984	-9106	42	60	112	845	62331	845	68706209
709	279	3935	-303	-978	-9108	42	60	112	846	62341	846	68706211
716	277	3945	-302	-974	-9104	42	60	112	847	62459	847	68706218
720	278	3949	-301	-983	-9111	42	60	112	848	62576	848	68706218
718	285	3941	-301	-986	-9086	47	63	109	849	62681	849	68706219
747	279	3940	-303	-983	-9100	47	63	109	850	62710	850	68706222
737	283	3945	-299	-975	-9056	47	63	109	851	62828	851	68706222
734	292	3930	-298	-972	-9080	47	63	109	852	62946	852	68706229
731	303	3936	-298	-978	-9073	40	60	104	853	63040	853	68706230
712	306	3925	-300	-981	-9071	40	60	104	854	63050	854	68706230
699	309	3911	-303	-979	-9040	40	60	104	855	63168	855	68706235
719	272	3940	-305	-982	-9091	40	60	104	856	63285	856	68706236
738	272	3935	-299	-987	-9083	36	56	112	857	63390	857	68706243
745	297	3935	-298	-974	-9059	36	56	112	858	63424	858	68706243
723	279	3952	-305	-976	-9052	36	56	112	859	63453	859	68706249
719	273	3942	-303	-981	-9077	34	54	100	860	63547	860	68706249
716	281	3934	-303	-984	-9081	34	54	100	861	63576	861	68706250
702	289	3930	-302	-977	-9073	34	54	100	862	63605	862	68706256
706	288	3936	-299	-975	-9088	34	52	106	863	63699	863	68706256
731	280	3920	-301	-976	-9081	34	52	106	864	63729	864	68706263
743	268	3939	-302	-974	-9065	34	52	106	865	63757	865	68706264
728	263	3923	-299	-978	-9085	29	55	95	866	63851	866	68706265
700	277	3929	-292	-977	-9088	29	55	95	867	63881	867	68706268
716	293	3951	-298	-981	-9073	29	55	95	868	63910	868	68706268
715	296	3954	-300	-987	-9095	20	56	102	869	64004	869	68706276
725	287	3938	-302	-982	-9057	20	56	102	870	64034	870	68706278
716	288	3936	-302	-976	-9086	20	56	102	871	64063	871	68706278
712	295	3940	-299	-977	-9106	20	50	94	872	64157	872	68706282
718	296	3945	-303	-975	-9090	20	50	94	873	64187	873	68706283
701	283	3950	-305	-977	-9086	20	50	94	874	64215	874	68706288
714	286	3951	-305	-982	-9085	20	54	90	875	64309	875	68706289
730	270	3959	-303	-981	-9090	20	54	90	876	64339	876	68706289
713	293	3954	-299	-983	-9088	20	54	90	877	64367	877	68706295
710	279	3963	-300	-981	-9090	17	49	91	878	64461	878	68706295
720	277	3959	-304	-970	-9062	17	49	91	879	64490	879	68706302
702	291	3947	-303	-978	-9081	17	49	91	880	64519	880	68706303
721	296	3943	-305	-985	-9082	14	48	92	881	64613	881	68706303
707	298	3942	-298	-978	-9061	14	48	92	882	64643	882	68706306
717	285	3928	-300	-980	-9051	14	48	92	883	64671	883	68706306
709	284	3950	-299	-978	-9056	12	46	84	884	64765	884	68706315
703	275	3958	-302	-978	-9073	12	46	84	885	64794	885	68706315
705	273	3911	-298	-976	-9081	12	46	84	886	64823	886	68706318
711	277	3927	-298	-976	-9072	16	48	82	887	64917	887	68706318
707	280	3945	-301	-983	-9076	16	48	82	888	64922	888	68706319
708	291	3970	-305	-981	-9074	16	48	82	889	65029	889	68706326
704	285	3966	-307	-974	-9052	16	48	82	890	65141	890	68706326
714	286	3959	-307	-976	-9055	9	57	85	891	65229	891	68706332
706	290	3969	-305	-981	-9072	9	57	85	892	65239	892	68706333
707	282	3957	-301	-977	-9072	9	57	85	893	65241	893	68706333
721	281	3933	-301	-986	-9077	6	50	78	894	65246	894	68706339
728	285	3931	-303	-979	-9075	6	50	78	895	65257	895	68706339
707	290	3935	-302	-979	-9069	6	50	78	896	65262	896	68706345
717	271	3933	-298	-974	-9070	1	55	73	897	65267	897	68706345
705	268	3945	-300	-969	-9081	1	55	73	898	65278	898	68706346
702	291	3938	-299	-982	-9055	1	55	73	899	65284	899	68706352
720	297	3937	-301	-983	-9077	9	55	79	900	65289	900	68706352
715	292	3950	-300	-978	-9070	9	55	79	901	65299	901	68706357
707	297	3941	-299	-978	-9036	9	55	79	902	65305	902	68706357
720	302	3936	-300	-972	-9068	10	54	80	903	65310	903	68706358
696	297	3948	-304	-971	-9059	10	54	80	904	65321	904	68706363
702	281	3950	-301	-974	-9039	10	54	80	905	65326	905	68706364
702	291	3949	-303	-974	-9077	2	50	78	906	65331	906	68706370
701	300	3969	-305	-977	-9075	2	50	78	907	65342	907	68706370
683	301	3974	-300	-975	-9046	2	50	78	908	65454	908	68706373
705	283	3951	-303	-972	-9075	2	50	78	909	65572	909	68706373
708	279	3959	-304	-979	-9051	3	55	75	910	65666	910	68706374
708	291	3955	-304	-975	-9070	3	55	75	911	65676	911	68706381
695	288	3958	-300	-974	-9059	3	55	75	912	65794	912	68706381
694	293	3960	-297	-978	-9067	3	55	75	913	65911	913	68706388
704	288	3935	-300	-977	-9072	-4	50	74	914	66016	914	68706389
699	287	3943	-306	-979	-9080	-4	50	74	915	66045	915	68706392
706	283	3948	-299	-983	-9078	-4	50	74	916	66163	916	68706393
717	291	3920	-301	-979	-9092	-4	50	74	917	66281	917	68706395
707	280	3932	-298	-982	-9065	-10	54	80	918	66375	918	68706404
683	283	3941	-300	-983	-9087	-10	54	80	919	66385	919	68706405
693	269	3918	-306	-982	-9074	-10	54	80	920	66503	920	68706406
706	273	3924	-303	-984	-9082	-10	54	80	921	66620	921	68706406
711	286	3936	-300	-989	-9072	-12	56	78	922	66725	922	68706407
709	298	3927	-295	-980	-9090	-12	56	78	923	66754	923	68706412
709	298	3934	-302	-975	-9060	-12	56	78	924	66872	924	68706412
701	287	3925	-303	-970	-9080	-12	56	78	925	66990	925	68706413
707	276	3966	-300	-974	-9086	-7	49	75	926	67084	926	68706416
707	272	3978	-299	-981	-9075	-7	49	75	927	67094	927	68706416
715	282	3945	-299	-978	-9070	-7	49	75	928	67206	928	68706424
716	295	3929	-300	-972	-9092	-7	49	75	929	67323	929	68706425
707	290	3916	-301	-973	-9082	-18	62	68	930	67433	930	68706425
711	298	3923	-307	-976	-9080	-18	62	68	931	67462	931	68706428
700	276	3922	-304	-973	-9101	-18	62	68	932	67580	932	68706428
713	292	3937	-299	-978	-9079	-18	62	68	933	67698	933	68706436
705	298	3928	-296	-980	-9077	-12	58	76	934	67792	934	68706436
695	293	3914	-302	-978	-9075	-12	58	76	935	67802	935	68706442
700	296	3946	-306	-981	-9058	-12	58	76	936	67920	936	68706442
694	278	3931	-308	-975	-9059	-12	58	76	937	68037	937	68706442
679	283	3916	-307	-974	-9099	-18	62	74	938	68142	938	68706448
690	277	3939	-303	-983	-9080	-18	62	74	939	68171	939	68706448
680	280	3932	-302	-977	-9082	-18	62	74	940	68289	940	68706452
682	300	3954	-301	-981	-9078	-18	62	74	941	68407	941	68706452
692	292	3938	-301	-978	-9113	-20	64	70	942	68501	942	68706452
698	290	3923	-300	-978	-9093	-20	64	70	943	68511	943	68706459
703	294	3913	-300	-984	-9085	-20	64	70	944	68629	944	68706460
721	297	3923	-301	-982	-9073	-20	64	70	945	68746	945	68706467
698	288	3946	-305	-975	-9079	-21	61	79	946	68851	946	68706467
698	272	3947	-301	-985	-9071	-21	61	79	947	68880	947	68706468
691	282	3951	-301	-979	-9062	-21	61	79	948	69005	948	68706475
705	305	3940	-301	-979	-9062	-24	68	78	949	69010	949	68706476
711	293	3930	-299	-980	-9063	-24	68	78	950	69038	950	68706482
702	300	3957	-305	-979	-9078	-24	68	78	951	69067	951	68706483
697	277	3969	-306	-979	-9068	-33	69	73	952	69161	952	68706483
691	270	3963	-299	-975	-9066	-33	69	73	953	69191	953	68706485
682	296	3975	-300	-976	-9076	-33	69	73	954	69219	954	68706486
691	289	3962	-300	-974	-9046	-31	69	77	955	69313	955	68706494
690	289	3958	-305	-971	-9069	-31	69	77	956	69342	956	68706494
684	273	3934	-303	-976	-9076	-31	69	77	957	69371	957	68706494
696	275	3925	-301	-977	-9070	-31	73	71	958	69465	958	68706501
688	274	3944	-300	-970	-9064	-31	73	71	959	69494	959	68706502
665	300	3929	-298	-975	-9080	-31	73	71	960	69523	960	68706506
671	297	3931	-300	-972	-9044	-40	72	76	961	69617	961	68706506
694	290	3933	-303	-976	-9062	-40	72	76	962	69646	962	68706513
683	287	3945	-302	-977	-9081	-40	72	76	963	69675	963	68706514
677	293	3946	-302	-976	-9073	-37	71	75	964	69769	964	68706514
681	286	3925	-305	-983	-9046	-37	71	75	965	69799	965	68706517
719	282	3946	-302	-979	-9053	-37	71	75	966	69827	966	68706518
705	289	3925	-301	-977	-9074	-42	76	72	967	69921	967	68706524
690	288	3941	-297	-978	-9086	-42	76	72	968	69950	968	68706525
689	279	3955	-300	-971	-9070	-42	76	72	969	69979	969	68706525
680	273	3933	-305	-973	-9072	-45	79	77	970	70073	970	68706532
676	277	3957	-309	-978	-9100	-45	79	77	971	70102	971	68706533
701	274	3952	-305	-972	-9091	-45	79	77	972	70131	972	68706538
709	279	3948	-300	-973	-9077	-50	76	70	973	70225	973	68706539
715	287	3927	-298	-972	-9108	-50	76	70	974	70254	974	68706539
685	297	3937	-301	-972	-9059	-50	76	70	975	70283	975	68706545
689	291	3945	-306	-976	-9076	-52	84	78	976	70377	976	68706545
683	277	3902	-301	-969	-9092	-52	84	78	977	70406	977	68706552
694	294	3920	-301	-972	-9072	-52	84	78	978	70435	978	68706553
685	278	3917	-301	-978	-9099	-52	86	74	979	70529	979	68706553
690	282	3934	-303	-978	-9070	-52	86	74	980	70558	980	68706556
687	301	3931	-305	-979	-9062	-52	86	74	981	70587	981	68706556
677	295	3937	-306	-977	-9092	-54	88	76	982	70681	982	68706564
682	284	3931	-302	-974	-9055	-54	88	76	983	70711	983	68706564
684	284	3912	-302	-975	-9069	-54	88	76	984	70740	984	68706565
686	268	3922	-303	-972	-9058	-56	84	76	985	70834	985	68706571
701	255	3952	-298	-984	-9054	-56	84	76	986	70864	986	68706571
683	262	3909	-299	-981	-9061	-56	84	76	987	70892	987	68706577
686	276	3901	-299	-974	-9074	-55	85	81	988	70986	988	68706577
692	294	3906	-306	-979	-9075	-55	85	81	989	71015	989	68706578
694	278	3942	-306	-977	-9067	-55	85	81	990	71044	990	68706583
697	273	3940	-303	-977	-9072	-54	86	80	991	71138	991	68706584
694	269	3943	-299	-977	-9118	-54	86	80	992	71167	992	68706590
689	276	3962	-299	-968	-9068	-54	86	80	993	71196	993	68706590
689	279	3942	-300	-971	-9105	-63	95	75	994	71290	994	68706596
693	279	3938	-309	-983	-9092	-63	95	75	995	71320	995	68706597
696	277	3960	-309	-976	-9078	-63	95	75	996	71348	996	68706597
690	269	3978	-306	-978	-9077	-61	93	79	997	71442	997	68706603
694	280	3962	-292	-971	-9075	-61	93	79	998	71472	998	68706604
681	284	3921	-295	-973	-9030	-61	93	79	999	71501	999	68706611
695	282	3967	-301	-975	-9050	-67	105	73	1000	71595	1000	68706612
687	275	3969	-305	-978	-9064	-67	105	73	1001	71625	1001	68706612
690	251	3938	-306	-981	-9048	-67	105	73	1002	71654	1002	68706616
699	269	3954	-301	-984	-9065	-57	105	79	1003	71747	1003	68706616
702	281	3948	-304	-969	-9052	-57	105	79	1004	71777	1004	68706622
678	273	3935	-303	-975	-9056	-57	105	79	1005	71806	1005	68706622
690	277	3931	-303	-975	-9094	-63	109	79	1006	71900	1006	68706623
673	285	3936	-301	-981	-9082	-63	109	79	1007	71930	1007	68706628
683	274	3917	-303	-983	-9086	-63	109	79	1008	71958	1008	68706628
670	265	3926	-306	-979	-9079	-71	107	75	1009	72052	1009	68706634
681	257	3944	-303	-978	-9081	-71	107	75	1010	72081	1010	68706635
673	262	3964	-301	-979	-9066	-71	107	75	1011	72110	1011	68706635
672	275	3960	-302	-973	-9052	-69	117	79	1012	72204	1012	68706641
681	279	3953	-302	-982	-9077	-69	117	79	1013	72234	1013	68706641
696	276	3959	-307	-977	-9094	-69	117	79	1014	72263	1014	68706648
706	257	3969	-310	-977	-9072	-64	116	76	1015	72357	1015	68706648
695	253	3967	-303	-982	-9064	-64	116	76	1016	72386	1016	68706649
696	270	3932	-300	-973	-9062	-64	116	76	1017	72415	1017	68706654
692	277	3937	-296	-969	-9074	-64	122	80	1018	72509	1018	68706655
685	265	3935	-299	-976	-9083	-64	122	80	1019	72538	1019	68706661
663	274	3946	-304	-974	-9080	-64	122	80	1020	72567	1020	68706662
688	271	3951	-307	-981	-9083	-70	122	82	1021	72661	1021	68706662
706	260	3947	-301	-974	-9082	-70	122	82	1022	72691	1022	68706667
694	258	3940	-297	-974	-9077	-70	122	82	1023	72719	1023	68706668
706	254	3940	-302	-977	-9069	-69	125	85	1024	72813	1024	68706674
701	264	3955	-302	-980	-9074	-69	125	85	1025	72843	1025	68706674
686	279	3950	-307	-983	-9097	-69	125	85	1026	72872	1026	68706681
693	282	3932	-306	-981	-9070	-73	137	85	1027	72966	1027	68706681
689	278	3938	-304	-972	-9075	-73	137	85	1028	72996	1028	68706681
682	260	3961	-307	-979	-9086	-73	137	85	1029	73024	1029	68706687
689	260	3973	-309	-977	-9063	-70	138	84	1030	73118	1030	68706687
692	252	3946	-302	-970	-9049	-70	138	84	1031	73148	1031	68706693
669	268	3938	-301	-970	-9086	-70	138	84	1032	73177	1032	68706695
686	275	3940	-299	-970	-9072	-67	137	81	1033	73271	1033	68706696
680	267	3954	-307	-981	-9071	-67	137	81	1034	73300	1034	68706700
672	261	3964	-307	-984	-9082	-67	137	81	1035	73329	1035	68706700
672	259	3962	-304	-978	-9076	-68	146	82	1036	73423	1036	68706705
697	264	3952	-295	-975	-9063	-68	146	82	1037	73452	1037	68706706
668	277	3941	-297	-970	-9060	-68	146	82	1038	73481	1038	68706706
669	273	3956	-299	-972	-9072	-70	144	78	1039	73575	1039	68706712
685	260	3979	-303	-984	-9067	-70	144	78	1040	73605	1040	68706712
683	269	3938	-302	-976	-9073	-70	144	78	1041	73634	1041	68706719
701	277	3945	-299	-972	-9074	-71	153	81	1042	73728	1042	68706719
689	277	3949	-299	-972	-9047	-71	153	81	1043	73758	1043	68706720
686	258	3937	-300	-967	-9054	-71	153	81	1044	73786	1044	68706752
685	264	3931	-304	-978	-9039	-68	156	76	1045	73880	1045	68706752
694	269	3946	-301	-982	-9074	-68	156	76	1046	73910	1046	68706755
669	252	3946	-302	-978	-9098	-68	156	76	1047	73938	1047	68706755
679	261	3933	-305	-982	-9059	-72	152	84	1048	74032	1048	68706756
687	259	3927	-304	-976	-9076	-72	152	84	1049	74062	1049	68706756
690	252	3972	-303	-976	-9080	-72	152	84	1050	74090	1050	68706757
686	264	3965	-302	-979	-9074	-73	163	83	1051	74184	1051	68706758
695	271	3953	-305	-979	-9080	-73	163	83	1052	74214	1052	68706759
686	259	3962	-308	-983	-9075	-73	163	83	1053	74243	1053	68706759
682	249	3929	-308	-981	-9072	-67	169	79	1054	74337	1054	68706762
675	235	3923	-301	-977	-9050	-67	169	79	1055	74367	1055	68706762
661	255	3953	-301	-976	-9047	-67	169	79	1056	74396	1056	68706763
667	257	3948	-301	-977	-9064	-73	169	81	1057	74490	1057	68706764
673	244	3937	-307	-981	-9047	-73	169	81	1058	74520	1058	68706766
690	255	3927	-304	-981	-9058	-73	169	81	1059	74549	1059	68706766
693	235	3935	-305	-976	-9081	-71	173	87	1060	74643	1060	68706766
698	248	3948	-298	-978	-9086	-71	173	87	1061	74672	1061	68706770
683	250	3957	-298	-972	-9085	-71	173	87	1062	74701	1062	68706770
688	248	3950	-299	-971	-9074	-66	176	88	1063	74795	1063	68706777
682	254	3940	-301	-981	-9080	-66	176	88	1064	74824	1064	68706777
682	273	3958	-301	-977	-9048	-66	176	88	1065	74853	1065	68706778
684	264	3934	-296	-977	-9085	-57	175	85	1066	74947	1066	68706783
690	260	3930	-301	-980	-9090	-57	175	85	1067	74977	1067	68706784
686	255	3923	-299	-974	-9077	-57	175	85	1068	75005	1068	68706789
691	243	3934	-300	-980	-9093	-61	185	87	1069	75099	1069	68706790
696	238	3969	-304	-974	-9061	-61	185	87	1070	75129	1070	68706790
707	257	3951	-304	-971	-9061	-61	185	87	1071	75157	1071	68706797
703	260	3944	-300	-973	-9098	-53	189	95	1072	75251	1072	68706798
699	247	3934	-306	-983	-9064	-53	189	95	1073	75281	1073	68706803
684	244	3927	-307	-980	-9065	-53	189	95	1074	75310	1074	68706804
695	235	3923	-306	-976	-9060	-58	190	88	1075	75404	1075	68706805
694	240	3951	-299	-977	-9059	-58	190	88	1076	75434	1076	68706808
681	279	3948	-302	-975	-9038	-58	190	88	1077	75463	1077	68706808
697	282	3932	-302	-977	-9099	-57	193	95	1078	75557	1078	68706816
699	269	3940	-309	-984	-9085	-57	193	95	1079	75586	1079	68706817
694	235	3931	-306	-986	-9057	-57	193	95	1080	75615	1080	68706818
701	237	3937	-304	-973	-9069	-57	195	87	1081	75709	1081	68706825
692	251	3969	-298	-974	-9095	-57	195	87	1082	75738	1082	68706825
678	237	3963	-299	-971	-9076	-57	195	87	1083	75767	1083	68706828
679	247	3977	-301	-968	-9069	-51	199	87	1084	75861	1084	68706829
689	252	3968	-300	-980	-9066	-51	199	87	1085	75890	1085	68706832
708	262	3951	-299	-978	-9078	-51	199	87	1086	75919	1086	68706836
702	256	3963	-298	-976	-9088	-48	198	94	1087	76013	1087	68706837
716	258	3970	-297	-976	-9101	-48	198	94	1088	76043	1088	68706840
710	256	3973	-302	-973	-9089	-48	198	94	1089	76071	1089	68706842
701	255	3963	-301	-973	-9077	-43	203	89	1090	76165	1090	68706847
690	276	3929	-301	-973	-9071	-43	203	89	1091	76194	1091	68706847
705	274	3944	-300	-976	-9079	-43	203	89	1092	76223	1092	68706847
682	267	3965	-301	-979	-9072	-46	206	96	1093	76317	1093	68706854
688	255	3974	-302	-977	-9075	-46	206	96	1094	76347	1094	68706855
709	245	3964	-304	-978	-9064	-46	206	96	1095	76376	1095	68706860
709	258	3960	-302	-984	-9071	-38	212	90	1096	76470	1096	68706861
701	252	3949	-303	-978	-9076	-38	212	90	1097	76500	1097	68706861
677	259	3967	-303	-978	-9076	-38	212	90	1098	76528	1098	68706867
681	260	3933	-306	-980	-9052	-36	208	94	1099	76622	1099	68706867
686	258	3936	-299	-976	-9064	-36	208	94	1100	76651	1100	68706874
701	242	3968	-303	-976	-9084	-36	208	94	1101	76680	1101	68706875
693	240	3967	-306	-979	-9047	-29	215	101	1102	76774	1102	68706876
696	242	3949	-309	-979	-9074	-29	215	101	1103	76803	1103	68706879
714	257	3945	-304	-979	-9067	-29	215	101	1104	76832	1104	68706882
721	247	3930	-304	-975	-9070	-35	217	99	1105	76926	1105	68706886
727	248	3927	-299	-974	-9057	-35	217	99	1106	76956	1106	68706886
687	258	3957	-298	-980	-9074	-35	217	99	1107	76984	1107	68706887
672	248	3950	-301	-974	-9076	-29	221	97	1108	77078	1108	68706893
683	254	3939	-302	-985	-9064	-29	221	97	1109	77107	1109	68706894
709	246	3940	-301	-977	-9074	-29	221	97	1110	77136	1110	68706900
695	244	3946	-297	-974	-9058	-21	219	97	1111	77230	1111	68706902
691	250	3951	-298	-974	-9074	-21	219	97	1112	77259	1112	68706902
685	267	3931	-299	-971	-9069	-21	219	97	1113	77288	1113	68706906
684	253	3931	-304	-979	-9080	-17	227	99	1114	77382	1114	68706906
686	239	3942	-300	-974	-9076	-17	227	99	1115	77412	1115	68706913
696	230	3967	-302	-970	-9102	-17	227	99	1116	77440	1116	68706913
690	260	3932	-301	-974	-9073	-18	222	98	1117	77534	1117	68706914
700	258	3936	-306	-976	-9085	-18	222	98	1118	77563	1118	68706917
702	245	3928	-306	-979	-9085	-18	222	98	1119	77592	1119	68706917
688	232	3932	-302	-978	-9066	-11	229	99	1120	77686	1120	68706924
698	236	3957	-303	-972	-9061	-11	229	99	1121	77715	1121	68706925
687	264	3944	-305	-979	-9069	-11	229	99	1122	77744	1122	68706932
698	252	3950	-307	-981	-9072	-10	232	98	1123	77838	1123	68706932
703	238	3949	-305	-976	-9066	-10	232	98	1124	77867	1124	68706933
727	251	3939	-305	-982	-9080	-10	232	98	1125	77896	1125	68706938
723	241	3936	-302	-985	-9050	-4	222	100	1126	77990	1126	68706939
708	234	3959	-305	-975	-9070	-4	222	100	1127	78019	1127	68706945
690	236	3937	-307	-977	-9076	-4	222	100	1128	78048	1128	68706945
692	238	3946	-305	-971	-9080	4	226	100	1129	78142	1129	68706946
696	248	3947	-303	-974	-9056	4	226	100	1130	78172	1130	68706951
694	244	3948	-298	-977	-9090	4	226	100	1131	78200	1131	68706951
713	254	3945	-297	-974	-9080	3	231	101	1132	78294	1132	68706957
706	232	3961	-301	-980	-9069	3	231	101	1133	78324	1133	68706958
704	251	3941	-301	-979	-9055	3	231	101	1134	78353	1134	68706958
716	255	3952	-302	-974	-9073	10	234	102	1135	78447	1135	68706964
718	251	3979	-301	-982	-9080	10	234	102	1136	78477	1136	68706965
706	250	3952	-299	-977	-9069	10	234	102	1137	78505	1137	68706972
711	246	3953	-302	-976	-9053	9	235	107	1138	78599	1138	68706972
710	224	3945	-306	-972	-9076	9	235	107	1139	78628	1139	68706972
716	261	3965	-303	-972	-9050	9	235	107	1140	78657	1140	68706976
710	247	3952	-302	-978	-9057	19	233	97	1141	78751	1141	68706977
697	250	3934	-303	-979	-9099	19	233	97	1142	78780	1142	68706982
697	222	3960	-308	-978	-9088	19	233	97	1143	78809	1143	68706982
698	227	3939	-309	-983	-9109	18	226	100	1144	78903	1144	68706982
705	227	3974	-303	-978	-9097	18	226	100	1145	78908	1145	68706988
708	235	3961	-300	-979	-9077	18	226	100	1146	79026	1146	68706988
704	245	3963	-301	-978	-9080	18	226	100	1147	79144	1147	68706992
706	238	3969	-299	-978	-9082	22	232	102	1148	79238	1148	68706992
728	253	3943	-303	-979	-9113	22	232	102	1149	79248	1149	68706993
716	242	3962	-306	-981	-9071	22	232	102	1150	79365	1150	68707002
710	249	3955	-300	-976	-9081	22	232	102	1151	79483	1151	68707002
714	263	3950	-298	-974	-9093	24	232	108	1152	79567	1152	68707003
715	266	3966	-300	-977	-9055	24	232	108	1153	79587	1153	68707004
716	256	3966	-304	-976	-9087	24	232	108	1154	79705	1154	68707013
722	253	3962	-305	-978	-9085	24	232	108	1155	79823	1155	68707014
710	251	3939	-303	-978	-9096	31	233	99	1156	79917	1156	68707014
706	246	3943	-300	-977	-9090	31	233	99	1157	79927	1157	68707017
707	240	3936	-299	-973	-9099	31	233	99	1158	79930	1158	68707018
710	243	3965	-302	-975	-9091	34	234	108	1159	79935	1159	68707023
723	237	3965	-303	-973	-9071	34	234	108	1160	79946	1160	68707024
706	218	3950	-306	-977	-9074	34	234	108	1161	79951	1161	68707024
716	240	3952	-304	-975	-9089	35	233	105	1162	79957	1162	68707031
712	242	3947	-301	-971	-9074	35	233	105	1163	79967	1163	68707031
717	235	3941	-302	-982	-9070	35	233	105	1164	79973	1164	68707037
712	251	3948	-302	-978	-9072	43	237	103	1165	79978	1165	68707037
730	250	3955	-304	-982	-9071	43	237	103	1166	79988	1166	68707037
727	243	3960	-305	-981	-9066	43	237	103	1167	79994	1167	68707041
696	257	3947	-308	-977	-9094	53	233	105	1168	79999	1168	68707041
695	253	3941	-306	-976	-9075	53	233	105	1169	80010	1169	68707049
705	238	3947	-303	-978	-9104	53	233	105	1170	80015	1170	68707050
709	237	3934	-307	-979	-9066	49	233	107	1171	80020	1171	68707050
723	242	3949	-304	-985	-9064	49	233	107	1172	80031	1172	68707056
720	221	3960	-303	-975	-9036	49	233	107	1173	80037	1173	68707056
702	236	3967	-301	-978	-9072	57	229	107	1174	80042	1174	68707063
685	239	3965	-302	-980	-9090	57	229	107	1175	80052	1175	68707063
712	245	3945	-303	-971	-9089	57	229	107	1176	80058	1176	68707064
725	244	3934	-300	-978	-9097	57	225	107	1177	80063	1177	68707070
712	245	3950	-300	-976	-9068	57	225	107	1178	80074	1178	68707071
724	235	3959	-305	-978	-9080	57	225	107	1179	80079	1179	68707073
724	259	3934	-307	-980	-9083	61	235	107	1180	80084	1180	68707074
727	257	3955	-303	-978	-9078	61	235	107	1181	80095	1181	68707074
711	251	3968	-303	-976	-9087	61	235	107	1182	80101	1182	68707081
714	258	3950	-303	-977	-9063	69	225	107	1183	80106	1183	68707089
713	259	3972	-301	-978	-9089	69	225	107	1184	80116	1184	68707091
721	258	3968	-299	-975	-9086	69	225	107	1185	80122	1185	68707091
726	252	3942	-301	-978	-9099	71	229	111	1186	80127	1186	68707094
716	231	3939	-304	-972	-9092	71	229	111	1187	80138	1187	68707095
720	231	3967	-302	-978	-9082	71	229	111	1188	80143	1188	68707095
721	242	3943	-303	-972	-9093	79	219	107	1189	80148	1189	68707101
719	230	3954	-304	-974	-9088	79	219	107	1190	80159	1190	68707101
719	237	3975	-297	-985	-9065	79	219	107	1191	80165	1191	68707108
727	223	3952	-299	-983	-9046	89	223	109	1192	80170	1192	68707108
732	241	3930	-299	-981	-9063	89	223	109	1193	80180	1193	68707108
731	245	3957	-305	-982	-9058	89	223	109	1194	80186	1194	68707112
714	251	3929	-307	-980	-9048	85	221	111	1195	80191	1195	68707112
735	245	3948	-304	-978	-9091	85	221	111	1196	80202	1196	68707119
726	254	3936	-300	-975	-9081	85	221	111	1197	80208	1197	68707119
729	255	3962	-301	-974	-9073	93	217	113	1198	80213	1198	68707120
730	253	3958	-304	-981	-9100	93	217	113	1199	80223	1199	68707127
724	244	3982	-306	-975	-9091	93	217	113	1200	80229	1200	68707127
713	235	3952	-305	-979	-9066	96	214	114	1201	80234	1201	68707133
716	240	3938	-303	-976	-9072	96	214	114	1202	80244	1202	68707133
735	251	3927	-302	-976	-9063	96	214	114	1203	80250	1203	68707134
709	245	3961	-304	-982	-9068	100	208	116	1204	80255	1204	68707141
720	237	3942	-308	-977	-9090	100	208	116	1205	80266	1205	68707142
728	242	3948	-302	-977	-9086	100	208	116	1206	80272	1206	68707147
706	259	3934	-305	-980	-9090	101	207	117	1207	80277	1207	68707148
724	251	3929	-301	-977	-9087	101	207	117	1208	80287	1208	68707148
739	262	3936	-303	-978	-9062	101	207	117	1209	80293	1209	68707151
723	246	3941	-303	-977	-9069	102	208	116	1210	80298	1210	68707151
723	245	3934	-303	-970	-9078	102	208	116	1211	80309	1211	68707158
718	244	3945	-299	-977	-9060	102	208	116	1212	80314	1212	68707158
715	261	3950	-301	-973	-9073	113	203	115	1213	80319	1213	68707159
711	264	3932	-305	-973	-9063	113	203	115	1214	80330	1214	68707166
711	258	3941	-305	-978	-9071	113	203	115	1215	80336	1215	68707166
734	260	3935	-300	-970	-9062	110	196	118	1216	80341	1216	68707172
704	244	3923	-301	-968	-9059	110	196	118	1217	80351	1217	68707172
715	239	3922	-302	-972	-9083	110	196	118	1218	80357	1218	68707178
723	252	3953	-304	-974	-9070	113	197	117	1219	80362	1219	68707178
717	246	3964	-306	-976	-9069	113	197	117	1220	80373	1220	68707179
711	227	3973	-305	-969	-9082	113	197	117	1221	80379	1221	68707184
722	256	3951	-304	-975	-9075	116	186	124	1222	80384	1222	68707185
718	249	3939	-304	-978	-9088	116	186	124	1223	80394	1223	68707190
728	245	3927	-305	-977	-9082	116	186	124	1224	80400	1224	68707191
733	255	3943	-303	-979	-9059	125	187	127	1225	80405	1225	68707191
732	249	3944	-298	-980	-9072	125	187	127	1226	80415	1226	68707198
721	246	3940	-305	-974	-9045	125	187	127	1227	80421	1227	68707198
725	261	3909	-306	-975	-9098	124	182	132	1228	80426	1228	68707204
729	246	3942	-306	-976	-9072	124	182	132	1229	80437	1229	68707204
740	264	3950	-309	-975	-9055	124	182	132	1230	80442	1230	68707205
730	264	3943	-305	-976	-9079	130	178	124	1231	80448	1231	68707212
733	255	3939	-302	-975	-9074	130	178	124	1232	80458	1232	68707213
721	241	3956	-302	-972	-9066	130	178	124	1233	80464	1233	68707218
733	247	3953	-304	-978	-9075	122	176	126	1234	80469	1234	68707219
739	229	3956	-304	-977	-9050	122	176	126	1235	80479	1235	68707223
743	220	3966	-300	-979	-9040	122	176	126	1236	80485	1236	68707223
727	249	3959	-300	-975	-9056	131	165	133	1237	80490	1237	68707224
701	245	3964	-302	-974	-9056	131	165	133	1238	80501	1238	68707230
700	252	3960	-301	-977	-9070	131	165	133	1239	80506	1239	68707232
710	254	3943	-301	-974	-9085	129	165	131	1240	80511	1240	68707232
721	259	3945	-300	-979	-9073	129	165	131	1241	80522	1241	68707237
709	243	3931	-302	-977	-9040	129	165	131	1242	80528	1242	68707237
755	255	3954	-305	-978	-9051	134	166	132	1243	80533	1243	68707243
734	256	3950	-305	-982	-9042	134	166	132	1244	80543	1244	68707244
724	259	3956	-305	-974	-9060	134	166	132	1245	80549	1245	68707244
725	247	3944	-303	-970	-9094	132	158	136	1246	80554	1246	68707250
735	259	3942	-304	-976	-9060	132	158	136	1247	80565	1247	68707250
744	251	3924	-299	-971	-9076	132	158	136	1248	80571	1248	68707256
730	251	3938	-303	-977	-9101	134	154	146	1249	80576	1249	68707256
719	244	3959	-300	-979	-9095	134	154	146	1250	80586	1250	68707262
732	239	3942	-299	-979	-9068	134	154	146	1251	80592	1251	68707263
717	257	3953	-305	-979	-9075	136	138	140	1252	80597	1252	68707263
730	248	3933	-307	-976	-9043	136	138	140	1253	80607	1253	68707268
733	259	3918	-304	-976	-9038	136	138	140	1254	80613	1254	68707269
724	267	3925	-300	-977	-9044	129	141	157	1255	80618	1255	68707302
710	255	3941	-297	-971	-9062	129	141	157	1256	80629	1256	68707302
712	265	3944	-304	-983	-9067	129	141	157	1257	80635	1257	68707303
723	273	3936	-308	-984	-9078	129	137	143	1258	80640	1258	68707305
716	251	3952	-307	-981	-9075	129	137	143	1259	80650	1259	68707305
715	268	3952	-302	-981	-9099	129	137	143	1260	80656	1260	68707307
724	252	3945	-304	-972	-9067	123	133	161	1261	80661	1261	68707307
718	262	3930	-306	-978	-9079	123	133	161	1262	80672	1262	68707307
714	255	3917	-308	-982	-9112	123	133	161	1263	80677	1263	68707309
731	259	3975	-307	-978	-9100	127	129	143	1264	80682	1264	68707310
730	261	3965	-301	-981	-9060	127	129	143	1265	80693	1265	68707312
723	268	3967	-299	-973	-9083	127	129	143	1266	80699	1266	68707312
741	277	3970	-302	-973	-9072	117	125	159	1267	80704	1267	68707312
751	283	3958	-304	-981	-9070	117	125	159	1268	80714	1268	68707314
735	270	3946	-304	-985	-9079	117	125	159	1269	80720	1269	68707314
722	260	3950	-301	-984	-9092	125	111	139	1270	80725	1270	68707317
725	264	3964	-298	-983	-9090	125	111	139	1271	80736	1271	68707317
725	261	3960	-306	-980	-9059	125	111	139	1272	80741	1272	68707317
731	258	3969	-311	-982	-9046	112	118	152	1273	80746	1273	68707320
735	248	3951	-309	-976	-9069	112	118	152	1274	80757	1274	68707321
721	261	3944	-307	-978	-9098	112	118	152	1275	80763	1275	68707324
731	250	3946	-304	-975	-9083	111	103	147	1276	80768	1276	68707324
729	269	3956	-302	-976	-9066	111	103	147	1277	80778	1277	68707325
738	272	3975	-308	-977	-9058	111	103	147	1278	80784	1278	68707333
732	249	3946	-305	-979	-9057	106	112	154	1279	80784	1279	68707334
721	236	3954	-304	-976	-9072	106	112	154	1280	80795	1280	68707337
719	261	3977	-303	-975	-9071	106	112	154	1281	80897	1281	68707338
714	270	3962	-298	-974	-9076	106	112	154	1282	80899	1282	68707345
719	261	3948	-301	-974	-9095	98	98	148	1283	80993	1283	68707346
720	273	3962	-303	-978	-9074	98	98	148	1284	81003	1284	68707346
723	286	3953	-301	-978	-9089	98	98	148	1285	81121	1285	68707351
738	286	3943	-299	-974	-9076	98	98	148	1286	81238	1286	68707351
736	281	3976	-301	-979	-9100	101	105	151	1287	81343	1287	68707357
728	275	3940	-303	-983	-9126	101	105	151	1288	81372	1288	68707357
749	262	3956	-304	-978	-9075	101	105	151	1289	81490	1289	68707358
736	277	3959	-299	-977	-9074	101	105	151	1290	81608	1290	68707361
735	257	3943	-302	-972	-9082	93	91	143	1291	81702	1291	68707362
729	260	3922	-304	-976	-9067	93	91	143	1292	81712	1292	68707391
727	276	3924	-298	-984	-9076	93	91	143	1293	81830	1293	68707391
723	280	3938	-300	-984	-9052	93	91	143	1294	81947	1294	68707391
723	272	3948	-304	-981	-9056	87	97	159	1295	82052	1295	68707393
720	257	3927	-300	-981	-9103	87	97	159	1296	82087	1296	68707394
727	274	3928	-303	-971	-9068	87	97	159	1297	82116	1297	68707396
730	279	3924	-302	-978	-9044	77	87	137	1298	82210	1298	68707396
720	269	3930	-304	-976	-9093	77	87	137	1299	82240	1299	68707397
732	273	3933	-307	-980	-9087	77	87	137	1300	82269	1300	68707399
726	268	3941	-308	-983	-9059	85	91	141	1301	82363	1301	68707402
726	275	3962	-302	-975	-9066	85	91	141	1302	82393	1302	68707403
718	290	3951	-304	-982	-9070	85	91	141	1303	82422	1303	68707404
715	275	3937	-311	-981	-9066	75	85	135	1304	82516	1304	68707405
716	270	3953	-306	-977	-9073	75	85	135	1305	82545	1305	68707405
731	276	3948	-304	-976	-9066	75	85	135	1306	82574	1306	68707407
718	286	3940	-306	-975	-9062	79	87	141	1307	82668	1307	68707407
722	282	3939	-308	-979	-9107	79	87	141	1308	82698	1308	68707408
728	257	3950	-303	-982	-9090	79	87	141	1309	82727	1309	68707414
723	271	3940	-301	-974	-9086	74	72	130	1310	82821	1310	68707415
723	277	3947	-301	-981	-9084	74	72	130	1311	82851	1311	68707416
732	284	3963	-302	-981	-9065	74	72	130	1312	82879	1312	68707422
730	291	3936	-305	-979	-9080	68	84	138	1313	82973	1313	68707423
738	292	3938	-306	-984	-9072	68	84	138	1314	83003	1314	68707428
726	278	3943	-301	-978	-9066	68	84	138	1315	83032	1315	68707429
736	279	3964	-300	-976	-9078	72	72	128	1316	83126	1316	68707430
748	283	3953	-305	-986	-9089	72	72	128	1317	83156	1317	68707432
739	285	3938	-308	-980	-9067	72	72	128	1318	83185	1318	68707432
743	271	3936	-310	-982	-9085	65	75	141	1319	83279	1319	68707441
752	276	3945	-308	-972	-9095	65	75	141	1320	83309	1320	68707441
711	262	3946	-304	-971	-9060	65	75	141	1321	83338	1321	68707441
730	278	3955	-304	-975	-9091	57	67	125	1322	83432	1322	68707447
738	278	3959	-307	-973	-9116	57	67	125	1323	83462	1323	68707447
729	276	3967	-309	-973	-9105	57	67	125	1324	83490	1324	68707453
729	268	3960	-305	-980	-9102	64	78	124	1325	83584	1325	68707454
744	262	3953	-303	-978	-9097	64	78	124	1326	83614	1326	68707455
741	272	3976	-301	-977	-9078	64	78	124	1327	83643	1327	68707465
739	272	3940	-298	-975	-9083	54	58	118	1328	83731	1328	68707473
725	278	3939	-305	-972	-9098	54	58	118	1329	83858	1329	68707475
725	279	3942	-304	-977	-9068	54	58	118	1330	83985	1330	68707476
720	283	3926	-301	-981	-9068	54	58	118	1331	84103	1331	68707479
731	279	3957	-303	-974	-9080	57	63	119	1332	84197	1332	68707483
727	284	3946	-304	-980	-9086	57	63	119	1333	84207	1333	68707484
737	270	3941	-303	-980	-9069	57	63	119	1334	84325	1334	68707484
732	278	3936	-305	-967	-9089	56	68	122	1335	84436	1335	68707485
719	262	3934	-304	-983	-9103	56	68	122	1336	84465	1336	68707485
715	262	3942	-304	-973	-9079	56	68	122	1337	84583	1337	68707486
737	275	3945	-306	-976	-9075	56	68	122	1338	84701	1338	68707486
720	262	3936	-306	-980	-9063	54	66	122	1339	84795	1339	68707487
703	263	3931	-307	-973	-9064	54	66	122	1340	84805	1340	68707488
706	266	3943	-302	-976	-9094	54	66	122	1341	84923	1341	68707494
727	281	3933	-301	-980	-9092	54	66	122	1342	85040	1342	68707494
727	281	3951	-299	-976	-9075	37	61	117	1343	85134	1343	68707495
727	297	3936	-303	-978	-9081	37	61	117	1344	85135	1344	68707498
721	292	3956	-305	-985	-9089	37	61	117	1345	85263	1345	68707498
721	286	3958	-308	-984	-9090	37	61	117	1346	85380	1346	68707504
730	288	3948	-307	-981	-9076	46	60	112	1347	85474	1347	68707504
728	280	3933	-304	-984	-9082	46	60	112	1348	85484	1348	68707505
730	276	3938	-303	-981	-9105	46	60	112	1349	85602	1349	68707512
717	276	3948	-303	-980	-9098	41	55	113	1350	85712	1350	68707512
733	273	3964	-306	-981	-9086	41	55	113	1351	85741	1351	68707518
745	291	3970	-304	-980	-9069	41	55	113	1352	85859	1352	68707518
740	290	3967	-305	-980	-9068	41	55	113	1353	85977	1353	68707518
747	284	3964	-306	-979	-9065	38	56	110	1354	86071	1354	68707522
739	287	3956	-305	-978	-9083	38	56	110	1355	86081	1355	68707522
734	280	3945	-305	-978	-9071	38	56	110	1356	86199	1356	68707530
721	267	3943	-304	-979	-9085	38	56	110	1357	86316	1357	68707531
727	274	3949	-305	-978	-9077	35	55	103	1358	86421	1358	68707531
719	288	3929	-304	-976	-9060	35	55	103	1359	86450	1359	68707534
725	292	3926	-305	-979	-9078	35	55	103	1360	86568	1360	68707534
727	297	3951	-308	-978	-9074	35	55	103	1361	86685	1361	68707542
736	293	3930	-303	-979	-9084	33	61	105	1362	86779	1362	68707543
723	279	3910	-298	-976	-9095	33	61	105	1363	86789	1363	68707543
713	287	3927	-299	-975	-9084	33	61	105	1364	86907	1364	68707549
704	295	3931	-301	-979	-9099	33	61	105	1365	87024	1365	68707553
710	292	3946	-306	-985	-9087	33	51	103	1366	87129	1366	68707555
731	280	3909	-309	-983	-9065	33	51	103	1367	87158	1367	68707555
722	273	3923	-303	-977	-9049	33	51	103	1368	87276	1368	68707558
715	290	3929	-304	-970	-9077	33	51	103	1369	87394	1369	68707559
717	290	3928	-304	-976	-9074	23	51	99	1370	87488	1370	68707559
720	287	3932	-304	-981	-9072	23	51	99	1371	87498	1371	68707566
710	282	3943	-300	-977	-9064	23	51	99	1372	87616	1372	68707566
721	285	3938	-302	-981	-9078	23	51	99	1373	87733	1373	68707572
727	279	3951	-305	-987	-9075	22	56	96	1374	87838	1374	68707573
729	285	3968	-300	-976	-9083	22	56	96	1375	87867	1375	68707573
736	291	3975	-302	-979	-9097	22	56	96	1376	87985	1376	68707578
712	289	3924	-305	-972	-9106	22	56	96	1377	88103	1377	68707579
708	293	3918	-303	-976	-9079	21	45	91	1378	88197	1378	68707582
711	286	3928	-303	-983	-9084	21	45	91	1379	88207	1379	68707582
723	271	3939	-303	-984	-9097	21	45	91	1380	88325	1380	68707582
742	286	3917	-305	-979	-9076	21	45	91	1381	88442	1381	68707590
732	282	3915	-304	-980	-9066	14	52	94	1382	88547	1382	68707591
721	278	3937	-302	-980	-9093	14	52	94	1383	88576	1383	68707595
714	279	3925	-303	-983	-9095	14	52	94	1384	88694	1384	68707595
730	287	3970	-305	-984	-9073	14	52	94	1385	88812	1385	68707595
714	285	3936	-305	-980	-9072	18	46	86	1386	88906	1386	68707602
710	284	3913	-302	-982	-9087	18	46	86	1387	88916	1387	68707603
722	290	3940	-304	-987	-9070	18	46	86	1388	89034	1388	68707610
721	275	3939	-302	-981	-9105	18	46	86	1389	89151	1389	68707611
724	287	3928	-302	-975	-9085	8	50	84	1390	89256	1390	68707612
723	299	3934	-304	-976	-9074	8	50	84	1391	89285	1391	68707613
708	302	3947	-306	-973	-9080	8	50	84	1392	89403	1392	68707614
727	287	3926	-304	-982	-9082	8	50	84	1393	89521	1393	68707620
717	290	3915	-301	-980	-9076	6	48	88	1394	89615	1394	68707621
726	289	3935	-301	-977	-9091	6	48	88	1395	89625	1395	68707621
724	297	3937	-306	-983	-9083	6	48	88	1396	89743	1396	68707626
708	285	3919	-306	-978	-9074	6	48	88	1397	89860	1397	68707627
711	275	3941	-306	-972	-9095	3	51	85	1398	89955	1398	68707630
710	273	3952	-301	-980	-9050	3	51	85	1399	89955	1399	68707630
700	272	3973	-300	-985	-9058	3	51	85	1400	90083	1400	68707637
720	275	3965	-301	-982	-9090	3	51	85	1401	90190	1401	68707638
726	283	3950	-303	-982	-9068	6	54	74	1402	90284	1402	68707638
719	280	3938	-303	-983	-9081	6	54	74	1403	90294	1403	68707643
713	275	3939	-306	-975	-9096	6	54	74	1404	90421	1404	68707644
712	289	3945	-305	-979	-9079	5	45	77	1405	90426	1405	68707651
713	293	3955	-303	-976	-9064	5	45	77	1406	90436	1406	68707651
708	287	3940	-302	-978	-9068	5	45	77	1407	90442	1407	68707651
719	304	3933	-305	-979	-9058	1	55	77	1408	90447	1408	68707657
712	288	3937	-304	-974	-9092	1	55	77	1409	90457	1409	68707657
702	283	3934	-300	-978	-9110	1	55	77	1410	90463	1410	68707663
694	280	3939	-302	-976	-9077	-5	53	75	1411	90468	1411	68707663
696	280	3954	-298	-977	-9076	-5	53	75	1412	90479	1412	68707664
697	284	3945	-309	-981	-9090	-5	53	75	1413	90485	1413	68707670
719	285	3921	-308	-983	-9077	-1	55	75	1414	90490	1414	68707671
735	285	3951	-304	-981	-9097	-1	55	75	1415	90501	1415	68707676
740	289	3947	-299	-976	-9087	-1	55	75	1416	90506	1416	68707676
719	291	3936	-303	-971	-9088	-5	57	77	1417	90511	1417	68707677
722	276	3937	-304	-976	-9073	-5	57	77	1418	90522	1418	68707682
714	275	3949	-305	-979	-9054	-5	57	77	1419	90527	1419	68707682
706	290	3936	-300	-976	-9040	-2	50	74	1420	90532	1420	68707689
709	299	3939	-299	-980	-9050	-2	50	74	1421	90543	1421	68707692
709	297	3953	-300	-977	-9074	-2	50	74	1422	90549	1422	68707692
699	284	3943	-307	-975	-9055	-11	57	73	1423	90554	1423	68707696
707	284	3941	-306	-982	-9080	-11	57	73	1424	90564	1424	68707696
683	280	3941	-303	-972	-9064	-11	57	73	1425	90570	1425	68707699
692	302	3933	-300	-970	-9047	-9	57	79	1426	90575	1426	68707700
699	304	3940	-303	-978	-9069	-9	57	79	1427	90586	1427	68707708
706	296	3944	-309	-979	-9087	-9	57	79	1428	90592	1428	68707709
721	285	3953	-311	-981	-9082	-9	59	77	1429	90597	1429	68707709
708	274	3935	-309	-979	-9072	-9	59	77	1430	90607	1430	68707714
712	283	3940	-300	-977	-9081	-9	59	77	1431	90613	1431	68707715
704	282	3951	-302	-981	-9053	-13	53	73	1432	90618	1432	68707721
706	278	3951	-307	-972	-9049	-13	53	73	1433	90629	1433	68707721
693	287	3953	-302	-979	-9075	-13	53	73	1434	90634	1434	68707721
700	292	3957	-299	-978	-9078	-18	62	72	1435	90639	1435	68707728
694	292	3942	-301	-974	-9078	-18	62	72	1436	90650	1436	68707728
689	283	3955	-303	-978	-9064	-18	62	72	1437	90656	1437	68707735
708	273	3934	-307	-980	-9047	-19	63	75	1438	90661	1438	68707736
709	275	3954	-305	-975	-9040	-19	63	75	1439	90671	1439	68707737
693	299	3959	-300	-982	-9077	-19	63	75	1440	90677	1440	68707739
696	303	3933	-301	-980	-9074	-16	64	74	1441	90682	1441	68707739
708	291	3923	-308	-979	-9068	-16	64	74	1442	90693	1442	68707748
702	279	3934	-306	-982	-9082	-16	64	74	1443	90698	1443	68707749
713	287	3934	-307	-978	-9080	-20	54	76	1444	90703	1444	68707752
697	282	3937	-307	-976	-9074	-20	54	76	1445	90714	1445	68707753
707	286	3943	-302	-975	-9072	-20	54	76	1446	90720	1446	68707754
690	307	3953	-304	-975	-9085	-25	65	75	1447	90725	1447	68707760
705	291	3953	-309	-983	-9082	-25	65	75	1448	90735	1448	68707762
697	282	3963	-307	-977	-9061	-25	65	75	1449	90741	1449	68707762
715	284	3962	-306	-977	-9066	-30	62	76	1450	90746	1450	68707767
689	280	3941	-301	-980	-9063	-30	62	76	1451	90757	1451	68707767
688	279	3922	-303	-972	-9043	-30	62	76	1452	90763	1452	68707771
700	277	3936	-304	-976	-9075	-26	72	78	1453	90768	1453	68707771
697	280	3936	-302	-980	-9074	-26	72	78	1454	90778	1454	68707771
702	298	3952	-305	-975	-9061	-26	72	78	1455	90784	1455	68707778
714	293	3943	-307	-978	-9073	-27	65	77	1456	90789	1456	68707779
711	295	3959	-307	-975	-9074	-27	65	77	1457	90800	1457	68707786
710	269	3956	-305	-983	-9060	-27	65	77	1458	90806	1458	68707786
694	263	3957	-301	-982	-9072	-35	63	79	1459	90811	1459	68707792
697	287	3970	-299	-975	-9054	-35	63	79	1460	90821	1460	68707792
701	299	3980	-302	-975	-9084	-35	63	79	1461	90827	1461	68707793
687	268	3949	-306	-975	-9092	-36	74	76	1462	90832	1462	68707798
689	279	3952	-305	-977	-9069	-36	74	76	1463	90843	1463	68707799
701	271	3953	-300	-981	-9051	-36	74	76	1464	90849	1464	68707806
691	287	3936	-301	-977	-9062	-38	68	70	1465	90854	1465	68707807
681	291	3955	-297	-973	-9060	-38	68	70	1466	90864	1466	68707807
685	298	3936	-308	-982	-9053	-38	68	70	1467	90870	1467	68707812
681	278	3942	-309	-983	-9050	-40	78	68	1468	90875	1468	68707812
691	275	3936	-306	-982	-9045	-40	78	68	1469	90886	1469	68707817
687	289	3931	-301	-973	-9069	-40	78	68	1470	90892	1470	68707818
692	286	3933	-304	-977	-9070	-42	74	72	1471	90897	1471	68707818
686	288	3933	-305	-979	-9062	-42	74	72	1472	90908	1472	68707824
693	295	3957	-303	-979	-9075	-42	74	72	1473	90913	1473	68707825
692	299	3951	-304	-983	-9103	-42	82	78	1474	90918	1474	68707830
699	294	3941	-303	-980	-9091	-42	82	78	1475	90929	1475	68707831
690	286	3955	-303	-976	-9047	-42	82	78	1476	90935	1476	68707831
688	288	3954	-305	-979	-9052	-51	81	79	1477	90940	1477	68707837
689	291	3957	-303	-978	-9065	-51	81	79	1478	90950	1478	68707837
694	292	3937	-301	-981	-9097	-51	81	79	1479	90956	1479	68707844
709	288	3919	-303	-978	-9067	-50	84	76	1480	90961	1480	68707845
694	282	3921	-302	-973	-9054	-50	84	76	1481	90972	1481	68707845
706	280	3943	-305	-977	-9066	-50	84	76	1482	90978	1482	68707848
701	289	3959	-303	-982	-9061	-51	81	79	1483	90983	1483	68707848
688	273	3923	-304	-979	-9091	-51	81	79	1484	90993	1484	68707855
702	285	3947	-300	-979	-9079	-51	81	79	1485	90999	1485	68707856
675	286	3957	-305	-981	-9077	-57	85	75	1486	91004	1486	68707856
674	272	3939	-310	-976	-9105	-57	85	75	1487	91015	1487	68707863
677	267	3934	-307	-982	-9070	-57	85	75	1488	91135	1488	68707863
682	258	3951	-307	-982	-9070	-58	88	76	1489	91140	1489	68707872
673	275	3958	-302	-980	-9079	-58	88	76	1490	91168	1490	68707872
697	297	3948	-301	-972	-9100	-58	88	76	1491	91197	1491	68707876
692	286	3942	-307	-976	-9068	-62	92	82	1492	91291	1492	68707876
692	285	3936	-303	-984	-9064	-62	92	82	1493	91321	1493	68707876
695	267	3942	-303	-978	-9057	-62	92	82	1494	91349	1494	68707884
695	264	3925	-299	-979	-9051	-57	91	79	1495	91443	1495	68707884
703	275	3927	-298	-977	-9056	-57	91	79	1496	91473	1496	68707890
683	298	3945	-301	-970	-9098	-57	91	79	1497	91501	1497	68707890
690	286	3952	-304	-977	-9079	-61	101	79	1498	91595	1498	68707893
679	279	3943	-308	-975	-9065	-61	101	79	1499	91625	1499	68707896
695	275	3933	-306	-979	-9076	-61	101	79	1500	91654	1500	68707897
710	265	3946	-306	-983	-9052	-59	97	79	1501	91748	1501	68707902
688	268	3939	-307	-981	-9070	-59	97	79	1502	91778	1502	68707903
684	273	3921	-309	-979	-9092	-59	97	79	1503	91806	1503	68707903
676	277	3943	-301	-974	-9050	-65	107	77	1504	91900	1504	68707908
670	279	3938	-309	-974	-9076	-65	107	77	1505	91930	1505	68707909
667	269	3944	-311	-982	-9074	-65	107	77	1506	91959	1506	68707916
672	248	3947	-313	-982	-9072	-70	104	78	1507	92053	1507	68707916
713	254	3954	-305	-976	-9072	-70	104	78	1508	92083	1508	68707917
708	284	3952	-301	-977	-9091	-70	104	78	1509	92112	1509	68707922
685	285	3936	-299	-970	-9055	-67	99	77	1510	92206	1510	68707922
685	293	3917	-304	-979	-9056	-67	99	77	1511	92236	1511	68707928
676	276	3918	-305	-979	-9074	-67	99	77	1512	92264	1512	68707929
691	274	3955	-308	-973	-9077	-65	111	83	1513	92358	1513	68707929
705	268	3961	-301	-974	-9080	-65	111	83	1514	92388	1514	68707934
701	277	3929	-303	-971	-9082	-65	111	83	1515	92416	1515	68707935
688	277	3938	-302	-971	-9071	-68	112	80	1516	92510	1516	68707941
685	271	3960	-303	-982	-9089	-68	112	80	1517	92540	1517	68707941
689	272	3944	-303	-977	-9074	-68	112	80	1518	92569	1518	68707944
692	275	3930	-302	-979	-9072	-67	121	77	1519	92657	1519	68707945
683	269	3942	-303	-980	-9069	-67	121	77	1520	92784	1520	68707946
681	274	3951	-306	-976	-9062	-67	121	77	1521	92785	1521	68707954
699	276	3960	-302	-979	-9077	-67	121	77	1522	92903	1522	68707955
696	274	3954	-300	-983	-9063	-69	119	81	1523	92997	1523	68707963
676	271	3946	-299	-978	-9075	-69	119	81	1524	93007	1524	68707965
690	285	3945	-301	-974	-9080	-69	119	81	1525	93124	1525	68707965
688	268	3928	-306	-980	-9086	-68	128	80	1526	93230	1526	68707966
690	269	3940	-311	-981	-9087	-68	128	80	1527	93259	1527	68707966
702	263	3915	-307	-981	-9094	-68	128	80	1528	93377	1528	68707971
679	267	3931	-304	-978	-9083	-68	128	80	1529	93495	1529	68707972
678	262	3930	-301	-973	-9097	-74	130	78	1530	93589	1530	68707972
678	269	3969	-304	-976	-9101	-74	130	78	1531	93599	1531	68707974
678	277	3947	-308	-981	-9100	-74	130	78	1532	93717	1532	68707975
695	270	3944	-311	-980	-9063	-74	130	78	1533	93834	1533	68707983
705	262	3932	-314	-982	-9063	-70	132	80	1534	93939	1534	68707984
683	259	3944	-301	-979	-9060	-70	132	80	1535	93968	1535	68707984
686	266	3961	-303	-979	-9074	-70	132	80	1536	94086	1536	68707987
664	263	3926	-307	-978	-9069	-70	132	80	1537	94204	1537	68707987
665	267	3930	-303	-974	-9064	-76	142	80	1538	94298	1538	68707994
675	267	3951	-303	-982	-9047	-76	142	80	1539	94308	1539	68707995
682	256	3932	-303	-986	-9071	-76	142	80	1540	94426	1540	68707995
692	256	3937	-298	-979	-9069	-76	142	80	1541	94543	1541	68707998
687	267	3956	-300	-977	-9081	-72	140	82	1542	94637	1542	68707999
689	266	3917	-300	-979	-9111	-72	140	82	1543	94638	1543	68708005
679	264	3922	-303	-981	-9064	-72	140	82	1544	94765	1544	68708005
678	264	3931	-299	-981	-9063	-72	140	82	1545	94883	1545	68708005
707	274	3939	-301	-986	-9064	-69	149	83	1546	94977	1546	68708033
715	255	3937	-302	-982	-9080	-69	149	83	1547	94987	1547	68708034
681	257	3948	-306	-976	-9062	-69	149	83	1548	95104	1548	68708036
692	261	3935	-308	-977	-9044	-72	150	84	1549	95215	1549	68708036
699	262	3957	-309	-979	-9083	-72	150	84	1550	95244	1550	68708038
684	263	3942	-307	-977	-9072	-72	150	84	1551	95362	1551	68708039
673	273	3904	-306	-979	-9076	-72	150	84	1552	95480	1552	68708039
675	263	3923	-309	-980	-9061	-72	162	82	1553	95574	1553	68708041
678	245	3940	-310	-986	-9061	-72	162	82	1554	95584	1554	68708041
677	246	3945	-310	-985	-9065	-72	162	82	1555	95702	1555	68708042
703	247	3948	-305	-976	-9078	-72	162	82	1556	95819	1556	68708043
722	253	3942	-301	-974	-9108	-72	164	78	1557	95924	1557	68708043
698	264	3924	-302	-977	-9109	-72	164	78	1558	95953	1558	68708045
675	262	3919	-307	-988	-9081	-72	164	78	1559	96071	1559	68708046
690	249	3931	-310	-987	-9048	-72	164	78	1560	96189	1560	68708047
694	259	3932	-303	-977	-9076	-66	168	86	1561	96283	1561	68708048
701	250	3923	-299	-978	-9095	-66	168	86	1562	96293	1562	68708048
694	259	3938	-300	-984	-9093	-66	168	86	1563	96411	1563	68708054
697	266	3942	-297	-982	-9093	-66	168	86	1564	96528	1564	68708055
694	258	3918	-301	-976	-9083	-65	169	85	1565	96633	1565	68708058
666	253	3936	-303	-985	-9073	-65	169	85	1566	96662	1566	68708058
666	265	3951	-300	-979	-9048	-65	169	85	1567	96780	1567	68708059
680	267	3925	-303	-978	-9038	-65	169	85	1568	96898	1568	68708066
699	266	3937	-302	-982	-9062	-67	177	89	1569	96992	1569	68708067
699	248	3924	-302	-972	-9072	-67	177	89	1570	97002	1570	68708073
704	247	3919	-302	-971	-9091	-67	177	89	1571	97120	1571	68708073
690	252	3937	-300	-979	-9102	-67	177	89	1572	97237	1572	68708074
692	248	3930	-302	-976	-9096	-64	186	84	1573	97342	1573	68708079
684	280	3935	-304	-981	-9091	-64	186	84	1574	97371	1574	68708082
691	278	3942	-306	-979	-9097	-64	186	84	1575	97489	1575	68708083
700	273	3957	-307	-982	-9089	-64	186	84	1576	97607	1576	68708083
704	255	3946	-304	-981	-9079	-57	183	91	1577	97701	1577	68708084
691	242	3951	-304	-981	-9118	-57	183	91	1578	97711	1578	68708090
681	265	3953	-305	-977	-9086	-57	183	91	1579	97829	1579	68708092
684	268	3922	-306	-981	-9082	-57	183	91	1580	97946	1580	68708096
683	250	3933	-309	-982	-9053	-57	191	87	1581	98051	1581	68708096
683	252	3923	-307	-976	-9065	-57	191	87	1582	98080	1582	68708102
686	246	3944	-298	-982	-9062	-57	191	87	1583	98198	1583	68708102
687	257	3954	-299	-973	-9083	-57	191	87	1584	98316	1584	68708103
684	259	3971	-301	-978	-9091	-50	198	88	1585	98410	1585	68708106
671	254	3960	-303	-981	-9083	-50	198	88	1586	98420	1586	68708106
676	260	3950	-306	-973	-9086	-50	198	88	1587	98538	1587	68708113
665	258	3950	-303	-971	-9109	-50	198	88	1588	98655	1588	68708114
682	247	3949	-300	-973	-9062	-56	198	92	1589	98750	1589	68708114
692	265	3935	-301	-974	-9063	-56	198	92	1590	98750	1590	68708117
689	266	3956	-306	-982	-9064	-56	198	92	1591	98878	1591	68708117
678	270	3936	-303	-982	-9061	-56	198	92	1592	98996	1592	68708124
694	261	3912	-300	-977	-9058	-50	200	88	1593	99090	1593	68708125
681	259	3922	-298	-968	-9052	-50	200	88	1594	99100	1594	68708125
684	262	3943	-300	-974	-9097	-50	200	88	1595	99217	1595	68708131
687	252	3929	-299	-977	-9082	-47	205	91	1596	99327	1596	68708131
701	258	3921	-304	-980	-9053	-47	205	91	1597	99356	1597	68708137
690	255	3934	-303	-979	-9074	-47	205	91	1598	99474	1598	68708137
691	241	3962	-303	-972	-9098	-47	205	91	1599	99592	1599	68708138
691	245	3966	-302	-973	-9078	-45	209	95	1600	99686	1600	68708142
694	247	3940	-305	-976	-9101	-45	209	95	1601	99696	1601	68708142
681	260	3949	-306	-975	-9076	-45	209	95	1602	99814	1602	68708151
690	267	3936	-304	-986	-9074	-45	209	95	1603	99926	1603	68708152
710	264	3953	-305	-991	-9081	-40	208	92	1604	100036	1604	68708152
698	254	3930	-302	-979	-9072	-40	208	92	1605	100065	1605	68708153
697	256	3919	-304	-979	-9108	-40	208	92	1606	100183	1606	68708154
685	248	3926	-305	-975	-9099	-40	208	92	1607	100301	1607	68708161
697	245	3916	-307	-984	-9065	-32	214	94	1608	100395	1608	68708161
701	252	3935	-305	-990	-9058	-32	214	94	1609	100405	1609	68708167
713	258	3947	-304	-982	-9057	-32	214	94	1610	100523	1610	68708167
714	243	3965	-304	-973	-9053	-32	214	94	1611	100640	1611	68708167
684	237	3974	-305	-974	-9092	-34	220	96	1612	100745	1612	68708173
685	241	3968	-304	-983	-9090	-34	220	96	1613	100774	1613	68708173
700	240	3947	-303	-988	-9076	-34	220	96	1614	100892	1614	68708177
690	240	3912	-303	-981	-9080	-34	220	96	1615	101010	1615	68708177
684	245	3926	-305	-974	-9084	-32	220	96	1616	101104	1616	68708178
694	232	3946	-303	-974	-9082	-32	220	96	1617	101114	1617	68708184
700	245	3952	-304	-978	-9096	-32	220	96	1618	101232	1618	68708185
696	251	3954	-300	-974	-9094	-32	220	96	1619	101349	1619	68708190
705	258	3936	-298	-974	-9088	-24	224	98	1620	101454	1620	68708191
692	253	3937	-301	-975	-9080	-24	224	98	1621	101483	1621	68708191
684	259	3936	-305	-977	-9094	-24	224	98	1622	101601	1622	68708197
711	254	3906	-306	-981	-9059	-24	224	98	1623	101719	1623	68708197
694	244	3935	-304	-977	-9054	-21	225	95	1624	101813	1624	68708200
703	239	3954	-302	-978	-9067	-21	225	95	1625	101823	1625	68708201
690	233	3957	-305	-981	-9095	-21	225	95	1626	101941	1626	68708201
688	246	3935	-304	-984	-9081	-21	225	95	1627	102058	1627	68708210
687	250	3934	-309	-980	-9080	-22	228	98	1628	102163	1628	68708211
701	233	3942	-302	-986	-9055	-22	228	98	1629	102192	1629	68708213
712	231	3918	-303	-978	-9085	-22	228	98	1630	102310	1630	68708214
709	241	3925	-301	-982	-9082	-22	228	98	1631	102428	1631	68708214
696	247	3945	-302	-980	-9094	-10	220	100	1632	102522	1632	68708222
713	244	3946	-303	-974	-9084	-10	220	100	1633	102532	1633	68708223
700	244	3933	-303	-978	-9099	-10	220	100	1634	102650	1634	68708229
689	231	3934	-301	-985	-9081	-10	220	100	1635	102767	1635	68708233
696	236	3928	-301	-979	-9088	-2	230	100	1636	102872	1636	68708234
703	257	3923	-297	-976	-9090	-2	230	100	1637	102901	1637	68708234
700	257	3946	-304	-977	-9089	-2	230	100	1638	103019	1638	68708234
695	246	3943	-305	-974	-9069	-2	230	100	1639	103137	1639	68708238
688	254	3945	-302	-978	-9105	-5	225	101	1640	103231	1640	68708238
686	235	3941	-304	-976	-9078	-5	225	101	1641	103241	1641	68708245
692	240	3929	-304	-972	-9075	-5	225	101	1642	103359	1642	68708246
695	256	3950	-302	-975	-9061	-5	225	101	1643	103476	1643	68708246
712	256	3963	-303	-981	-9090	3	233	107	1644	103581	1644	68708252
697	245	3937	-304	-976	-9082	3	233	107	1645	103610	1645	68708252
693	238	3938	-301	-985	-9075	3	233	107	1646	103728	1646	68708255
689	234	3916	-304	-982	-9057	3	233	107	1647	103846	1647	68708256
684	230	3922	-306	-982	-9086	13	231	99	1648	103940	1648	68708256
704	237	3925	-303	-985	-9072	13	231	99	1649	103950	1649	68708262
712	239	3932	-302	-985	-9083	13	231	99	1650	104068	1650	68708262
708	238	3938	-301	-979	-9065	13	231	99	1651	104185	1651	68708269
717	250	3928	-305	-982	-9078	11	233	101	1652	104290	1652	68708269
716	258	3927	-302	-974	-9097	11	233	101	1653	104319	1653	68708270
727	253	3923	-306	-983	-9075	11	233	101	1654	104437	1654	68708278
713	254	3926	-308	-981	-9073	11	233	101	1655	104555	1655	68708282
711	251	3954	-304	-975	-9080	25	237	103	1656	104649	1656	68708282
704	243	3944	-303	-980	-9074	25	237	103	1657	104654	1657	68708283
699	263	3940	-302	-981	-9074	25	237	103	1658	104772	1658	68708283
698	250	3947	-302	-976	-9057	25	237	103	1659	104889	1659	68708288
719	244	3968	-304	-979	-9067	18	232	100	1660	104999	1660	68708289
698	221	3933	-302	-985	-9074	18	232	100	1661	105028	1661	68708292
704	221	3956	-300	-985	-9102	18	232	100	1662	105146	1662	68708293
716	240	3941	-300	-980	-9090	18	232	100	1663	105264	1663	68708294
706	240	3946	-301	-979	-9067	24	238	106	1664	105358	1664	68708301
697	247	3961	-305	-983	-9076	24	238	106	1665	105368	1665	68708302
698	240	3961	-307	-980	-9085	24	238	106	1666	105486	1666	68708307
702	234	3943	-305	-976	-9072	24	238	106	1667	105603	1667	68708307
714	237	3950	-304	-973	-9055	31	235	105	1668	105708	1668	68708311
697	255	3927	-300	-979	-9060	31	235	105	1669	105737	1669	68708312
695	257	3920	-304	-984	-9070	31	235	105	1670	105855	1670	68708312
733	250	3940	-305	-984	-9077	31	235	105	1671	105973	1671	68708320
718	256	3949	-306	-981	-9062	38	228	102	1672	106067	1672	68708320
698	254	3951	-304	-974	-9084	38	228	102	1673	106077	1673	68708323
703	257	3951	-303	-976	-9083	38	228	102	1674	106195	1674	68708324
704	252	3946	-303	-981	-9109	38	228	102	1675	106312	1675	68708324
712	237	3935	-302	-982	-9091	47	229	109	1676	106417	1676	68708331
701	252	3937	-302	-980	-9093	47	229	109	1677	106446	1677	68708331
707	247	3952	-299	-982	-9063	47	229	109	1678	106564	1678	68708335
715	241	3931	-303	-983	-9072	47	229	109	1679	106682	1679	68708335
719	254	3934	-304	-983	-9076	50	232	110	1680	106776	1680	68708335
721	242	3951	-302	-984	-9092	50	232	110	1681	106786	1681	68708341
717	233	3944	-304	-981	-9085	50	232	110	1682	106904	1682	68708342
719	241	3937	-303	-984	-9094	50	232	110	1683	107021	1683	68708348
721	246	3954	-302	-979	-9067	54	228	104	1684	107126	1684	68708349
706	253	3943	-302	-981	-9073	54	228	104	1685	107155	1685	68708350
714	259	3951	-306	-983	-9066	54	228	104	1686	107273	1686	68708352
708	245	3965	-309	-983	-9074	54	228	104	1687	107391	1687	68708353
702	249	3966	-306	-986	-9085	57	227	107	1688	107485	1688	68708361
698	240	3951	-300	-981	-9086	57	227	107	1689	107495	1689	68708362
702	234	3942	-304	-976	-9079	57	227	107	1690	107613	1690	68708362
698	227	3956	-302	-978	-9116	57	227	107	1691	107730	1691	68708366
717	234	3940	-300	-981	-9085	66	230	106	1692	107835	1692	68708366
724	239	3936	-303	-974	-9082	66	230	106	1693	107864	1693	68708372
716	235	3930	-301	-978	-9100	66	230	106	1694	107982	1694	68708373
711	246	3954	-302	-973	-9071	66	230	106	1695	108100	1695	68708373
720	249	3941	-301	-978	-9079	69	225	111	1696	108193	1696	68708376
710	244	3946	-298	-980	-9080	69	225	111	1697	108203	1697	68708376
694	252	3942	-301	-975	-9065	69	225	111	1698	108321	1698	68708385
709	251	3952	-299	-970	-9086	69	225	111	1699	108438	1699	68708385
724	261	3953	-300	-971	-9077	77	223	113	1700	108543	1700	68708391
719	271	3974	-303	-977	-9086	77	223	113	1701	108572	1701	68708391
731	256	3965	-304	-979	-9062	77	223	113	1702	108690	1702	68708392
727	256	3898	-300	-980	-9068	77	223	113	1703	108808	1703	68708395
731	257	3899	-298	-980	-9064	82	220	112	1704	108902	1704	68708395
717	250	3908	-300	-982	-9073	82	220	112	1705	108912	1705	68708403
703	252	3925	-301	-983	-9093	82	220	112	1706	109030	1706	68708404
709	230	3914	-301	-982	-9105	82	220	112	1707	109147	1707	68708404
719	226	3918	-303	-981	-9094	81	221	113	1708	109252	1708	68708407
715	232	3941	-303	-979	-9076	81	221	113	1709	109281	1709	68708408
713	243	3965	-301	-980	-9085	81	221	113	1710	109399	1710	68708415
716	259	3951	-302	-985	-9059	81	221	113	1711	109517	1711	68708416
711	259	3948	-303	-980	-9066	86	212	110	1712	109611	1712	68708416
719	242	3943	-303	-975	-9063	86	212	110	1713	109621	1713	68708419
732	236	3964	-302	-978	-9104	86	212	110	1714	109739	1714	68708419
729	239	3955	-302	-981	-9092	86	212	110	1715	109856	1715	68708427
722	244	3929	-304	-974	-9111	94	208	114	1716	109961	1716	68708428
728	265	3927	-305	-983	-9076	94	208	114	1717	109990	1717	68708428
740	265	3908	-304	-973	-9106	94	208	114	1718	110108	1718	68708433
723	245	3939	-304	-978	-9065	94	208	114	1719	110226	1719	68708434
718	251	3937	-299	-975	-9077	102	206	114	1720	110320	1720	68708438
714	251	3945	-301	-970	-9082	102	206	114	1721	110330	1721	68708439
717	239	3958	-302	-974	-9108	102	206	114	1722	110448	1722	68708439
718	232	3939	-302	-979	-9079	102	206	114	1723	110565	1723	68708444
693	239	3936	-302	-980	-9104	108	204	112	1724	110670	1724	68708445
708	245	3944	-303	-980	-9101	108	204	112	1725	110699	1725	68708451
723	263	3938	-303	-977	-9090	108	204	112	1726	110817	1726	68708451
731	253	3937	-305	-980	-9083	108	204	112	1727	110935	1727	68708451
721	261	3935	-304	-989	-9102	111	207	123	1728	111029	1728	68708454
735	247	3931	-306	-985	-9054	111	207	123	1729	111039	1729	68708455
732	234	3945	-303	-979	-9072	111	207	123	1730	111157	1730	68708463
728	253	3946	-299	-974	-9072	111	207	123	1731	111274	1731	68708463
719	250	3931	-298	-972	-9083	121	197	121	1732	111379	1732	68708469
729	275	3966	-305	-978	-9081	121	197	121	1733	111408	1733	68708470
715	264	3968	-307	-979	-9093	121	197	121	1734	111526	1734	68708471
714	251	3957	-305	-978	-9067	121	197	121	1735	111644	1735	68708474
731	247	3952	-299	-978	-9087	123	197	121	1736	111737	1736	68708474
716	237	3955	-300	-979	-9063	123	197	121	1737	111747	1737	68708482
704	239	3947	-301	-977	-9086	123	197	121	1738	111865	1738	68708483
720	231	3949	-304	-978	-9089	123	197	121	1739	111982	1739	68708484
737	232	3945	-308	-979	-9080	112	182	128	1740	112087	1740	68708486
704	242	3941	-303	-972	-9063	112	182	128	1741	112116	1741	68708486
707	251	3943	-303	-982	-9085	112	182	128	1742	112234	1742	68708493
733	238	3928	-301	-982	-9068	112	182	128	1743	112352	1743	68708494
737	248	3932	-297	-971	-9089	122	186	126	1744	112446	1744	68708494
734	260	3916	-297	-977	-9082	122	186	126	1745	112456	1745	68708497
733	251	3909	-300	-978	-9064	122	186	126	1746	112574	1746	68708497
708	239	3918	-302	-974	-9087	122	186	126	1747	112691	1747	68708506
721	259	3906	-304	-977	-9104	119	175	129	1748	112796	1748	68708506
736	255	3931	-307	-983	-9056	119	175	129	1749	112825	1749	68708506
723	255	3922	-300	-976	-9077	119	175	129	1750	112943	1750	68708509
720	260	3928	-298	-979	-9102	119	175	129	1751	113061	1751	68708509
719	258	3942	-299	-977	-9096	130	172	128	1752	113155	1752	68708517
726	240	3945	-301	-978	-9073	130	172	128	1753	113165	1753	68708517
727	239	3938	-301	-980	-9091	130	172	128	1754	113283	1754	68708517
737	233	3934	-307	-983	-9097	130	172	128	1755	113400	1755	68708523
736	235	3933	-311	-981	-9087	129	169	133	1756	113505	1756	68708524
729	250	3952	-299	-977	-9061	129	169	133	1757	113534	1757	68708530
722	238	3945	-301	-971	-9061	129	169	133	1758	113652	1758	68708530
710	251	3909	-305	-982	-9067	129	169	133	1759	113770	1759	68708530
719	248	3929	-305	-984	-9082	132	160	138	1760	113864	1760	68708533
731	253	3936	-303	-979	-9091	132	160	138	1761	113874	1761	68708534
724	253	3951	-300	-981	-9076	132	160	138	1762	113992	1762	68708542
725	263	3938	-301	-985	-9105	132	160	138	1763	114109	1763	68708543
735	266	3936	-302	-981	-9083	136	154	136	1764	114214	1764	68708546
707	258	3965	-305	-984	-9064	136	154	136	1765	114243	1765	68708546
721	249	3934	-305	-976	-9072	136	154	136	1766	114361	1766	68708547
725	252	3927	-303	-974	-9090	136	154	136	1767	114478	1767	68708553
738	262	3920	-305	-979	-9082	123	149	143	1768	114572	1768	68708554
728	255	3934	-305	-976	-9088	123	149	143	1769	114582	1769	68708561
718	265	3941	-308	-975	-9048	123	149	143	1770	114700	1770	68708561
739	265	3938	-306	-972	-9049	123	149	143	1771	114817	1771	68708562
736	251	3940	-305	-976	-9055	136	148	140	1772	114922	1772	68708564
724	251	3966	-301	-969	-9053	136	148	140	1773	114951	1773	68708565
730	262	3969	-300	-975	-9052	136	148	140	1774	115069	1774	68708572
722	268	3910	-300	-973	-9078	136	148	140	1775	115187	1775	68708572
722	276	3920	-301	-979	-9058	128	138	152	1776	115281	1776	68708572
725	265	3943	-301	-976	-9068	128	138	152	1777	115291	1777	68708576
712	261	3935	-300	-970	-9038	128	138	152	1778	115409	1778	68708576
712	267	3946	-303	-973	-9055	128	138	152	1779	115526	1779	68708584
726	270	3931	-300	-983	-9069	119	127	149	1780	115631	1780	68708585
740	265	3941	-307	-979	-9061	119	127	149	1781	115660	1781	68708585
735	260	3951	-303	-977	-9059	119	127	149	1782	115778	1782	68708588
720	252	3952	-302	-977	-9064	119	127	149	1783	115896	1783	68708588
718	248	3947	-299	-978	-9068	126	126	152	1784	115990	1784	68708596
740	256	3957	-297	-980	-9071	126	126	152	1785	116000	1785	68708596
729	261	3933	-303	-974	-9093	126	126	152	1786	116118	1786	68708596
716	258	3958	-311	-970	-9088	126	126	152	1787	116235	1787	68708602
731	270	3959	-306	-977	-9074	122	124	152	1788	116340	1788	68708602
718	261	3960	-302	-979	-9066	122	124	152	1789	116369	1789	68708608
726	262	3934	-302	-982	-9073	122	124	152	1790	116487	1790	68708609
722	267	3922	-305	-979	-9048	122	124	152	1791	116605	1791	68708609
729	269	3915	-304	-977	-9041	121	113	147	1792	116699	1792	68708612
728	270	3943	-304	-976	-9060	121	113	147	1793	116709	1793	68708622
745	265	3934	-301	-976	-9069	121	113	147	1794	116827	1794	68708636
726	268	3947	-298	-976	-9074	121	113	147	1795	116944	1795	68708638
727	274	3949	-298	-977	-9064	108	108	162	1796	117049	1796	68708643
717	272	3954	-306	-977	-9069	108	108	162	1797	117078	1797	68708644
710	278	3953	-303	-981	-9066	108	108	162	1798	117203	1798	68708644
737	258	3931	-303	-981	-9066	102	104	150	1799	117208	1799	68708644
739	278	3954	-303	-978	-9094	102	104	150	1800	117236	1800	68708645
711	283	3940	-307	-976	-9093	102	104	150	1801	117265	1801	68708645
720	271	3928	-307	-980	-9078	102	106	156	1802	117359	1802	68708646
739	249	3941	-300	-979	-9077	102	106	156	1803	117388	1803	68708646
726	263	3947	-302	-979	-9085	102	106	156	1804	117417	1804	68708670
735	282	3914	-298	-974	-9071	100	96	148	1805	117511	1805	68708671
724	282	3931	-299	-975	-9075	100	96	148	1806	117540	1806	68708673
751	276	3945	-299	-982	-9078	100	96	148	1807	117569	1807	68708674
737	264	3936	-304	-983	-9089	93	99	159	1808	117663	1808	68708675
732	261	3949	-304	-984	-9068	93	99	159	1809	117692	1809	68708679
741	274	3962	-303	-978	-9118	93	99	159	1810	117721	1810	68708679
732	275	3943	-303	-976	-9076	90	90	134	1811	117815	1811	68708679
732	278	3949	-302	-979	-9056	90	90	134	1812	117844	1812	68708679
721	276	3943	-303	-976	-9082	90	90	134	1813	117873	1813	68708680
727	274	3951	-303	-979	-9058	82	98	148	1814	117967	1814	68708682
737	277	3948	-302	-984	-9083	82	98	148	1815	117996	1815	68708682
731	256	3937	-302	-977	-9105	82	98	148	1816	118025	1816	68708683
731	260	3945	-302	-974	-9112	80	80	132	1817	118119	1817	68708683
732	281	3944	-300	-973	-9087	80	80	132	1818	118148	1818	68708684
734	271	3954	-296	-973	-9105	80	80	132	1819	118177	1819	68708686
735	274	3939	-297	-980	-9091	77	93	147	1820	118271	1820	68708686
735	278	3923	-307	-974	-9086	77	93	147	1821	118300	1821	68708692
718	264	3935	-303	-976	-9083	77	93	147	1822	118324	1822	68708692
721	259	3947	-300	-981	-9054	75	75	129	1823	118418	1823	68708695
723	298	3959	-301	-973	-9051	75	75	129	1824	118545	1824	68708696
710	279	3967	-301	-973	-9075	75	75	129	1825	118546	1825	68708696
723	262	3948	-306	-975	-9067	75	75	129	1826	118664	1826	68708703
731	259	3934	-306	-976	-9080	72	82	134	1827	118758	1827	68708703
734	264	3933	-305	-982	-9089	72	82	134	1828	118768	1828	68708707
743	278	3956	-305	-986	-9084	72	82	134	1829	118885	1829	68708707
729	271	3963	-302	-981	-9061	72	82	134	1830	119003	1830	68708707
733	277	3939	-301	-981	-9062	71	75	125	1831	119087	1831	68708713
728	274	3934	-302	-983	-9081	71	75	125	1832	119107	1832	68708713
736	255	3956	-303	-977	-9082	71	75	125	1833	119225	1833	68708719
739	265	3933	-301	-974	-9081	71	75	125	1834	119343	1834	68708719
732	285	3945	-298	-979	-9085	71	71	135	1835	119437	1835	68708719
724	291	3945	-298	-978	-9095	71	71	135	1836	119447	1836	68708725
728	295	3943	-303	-977	-9089	71	71	135	1837	119450	1837	68708726
723	290	3961	-305	-983	-9077	64	64	118	1838	119455	1838	68708733
720	285	3961	-302	-975	-9072	64	64	118	1839	119465	1839	68708733
717	281	3956	-297	-986	-9072	64	64	118	1840	119471	1840	68708733
715	272	3937	-300	-984	-9079	60	76	132	1841	119476	1841	68708737
728	261	3936	-306	-980	-9087	60	76	132	1842	119481	1842	68708737
747	265	3924	-302	-981	-9069	60	76	132	1843	119584	1843	68708744
727	278	3933	-300	-979	-9087	60	76	132	1844	119585	1844	68708745
729	281	3936	-300	-978	-9080	55	67	119	1845	119679	1845	68708745
734	275	3962	-300	-981	-9090	55	67	119	1846	119689	1846	68708748
713	284	3942	-300	-980	-9081	55	67	119	1847	119807	1847	68708748
722	276	3942	-302	-980	-9081	55	67	119	1848	119924	1848	68708754
720	259	3961	-303	-984	-9071	61	73	129	1849	120018	1849	68708755
727	281	3937	-299	-982	-9061	61	73	129	1850	120019	1850	68708755
726	282	3944	-301	-980	-9080	61	73	129	1851	120147	1851	68708761
720	275	3934	-298	-974	-9085	61	73	129	1852	120265	1852	68708761
716	284	3946	-300	-975	-9070	55	63	117	1853	120359	1853	68708764
712	281	3942	-300	-974	-9050	55	63	117	1854	120369	1854	68708764
716	268	3924	-302	-978	-9098	55	63	117	1855	120486	1855	68708772
724	272	3953	-304	-986	-9094	55	63	117	1856	120604	1856	68708772
731	282	3938	-301	-973	-9080	49	69	127	1857	120692	1857	68708772
721	295	3943	-302	-984	-9096	49	69	127	1858	120703	1858	68708775
727	274	3958	-307	-989	-9086	49	69	127	1859	120821	1859	68708776
730	269	3968	-306	-982	-9099	49	69	127	1860	120939	1860	68708783
715	261	3954	-305	-983	-9071	51	59	109	1861	121033	1861	68708783
723	286	3962	-305	-985	-9085	51	59	109	1862	121043	1862	68708783
731	275	3951	-304	-972	-9097	51	59	109	1863	121148	1863	68708787
720	270	3954	-307	-979	-9082	51	59	109	1864	121279	1864	68708787
714	283	3927	-305	-982	-9087	44	62	116	1865	121373	1865	68708793
711	281	3930	-307	-975	-9077	44	62	116	1866	121383	1866	68708793
734	261	3909	-305	-976	-9099	44	62	116	1867	121501	1867	68708794
728	261	3927	-298	-981	-9093	44	62	116	1868	121618	1868	68708799
724	286	3931	-295	-974	-9115	51	61	111	1869	121712	1869	68708799
725	284	3945	-303	-984	-9101	51	61	111	1870	121715	1870	68708803
728	285	3951	-303	-990	-9095	51	61	111	1871	121841	1871	68708803
726	289	3945	-302	-985	-9117	51	61	111	1872	121959	1872	68708804
729	292	3925	-303	-977	-9111	40	62	110	1873	122053	1873	68708813
718	294	3925	-298	-975	-9088	40	62	110	1874	122063	1874	68708813
722	281	3927	-301	-973	-9081	40	62	110	1875	122181	1875	68708817
742	282	3934	-304	-973	-9075	48	56	114	1876	122293	1876	68708818
726	270	3938	-307	-980	-9088	48	56	114	1877	122321	1877	68708818
729	267	3948	-300	-984	-9033	48	56	114	1878	122439	1878	68708823
738	278	3930	-300	-984	-9052	48	56	114	1879	122557	1879	68708824
742	299	3938	-302	-982	-9055	27	57	111	1880	122651	1880	68708827
721	294	3936	-304	-974	-9078	27	57	111	1881	122661	1881	68708828
717	282	3936	-303	-976	-9101	27	57	111	1882	122779	1882	68708836
711	277	3944	-306	-983	-9102	27	57	111	1883	122896	1883	68708836
718	289	3940	-303	-980	-9097	32	58	102	1884	123001	1884	68708837
722	285	3939	-306	-974	-9101	32	58	102	1885	123030	1885	68708839
736	297	3943	-306	-980	-9088	32	58	102	1886	123148	1886	68708840
733	278	3937	-303	-982	-9094	32	58	102	1887	123265	1887	68708847
