Accl X	Accl Y	Accl Z	Gyro X	Gyro Y	Gyro Z	Mag X	Mag Y	Mag Z	RPkt#	Rtime	LPkt#	Ltime
141	720	3932	-645	-678	-6672	45	23	141	0	0	0	79489841
150	706	3935	-652	-679	-6676	46	20	142	1	53	1	79489845
137	677	3969	-656	-676	-6689	46	20	142	2	154	2	79489845
161	671	3978	-649	-669	-6670	47	23	141	3	206	3	79489847
161	675	3971	-647	-674	-6673	47	23	141	4	306	4	79489849
148	691	3946	-649	-674	-6694	41	23	141	5	359	5	79489849
135	678	3928	-647	-672	-6671	41	23	141	6	459	6	79489854
140	690	3932	-642	-673	-6681	50	20	142	7	512	7	79489854
145	696	3953	-635	-678	-6663	50	20	142	8	612	8	79489857
147	701	3988	-642	-679	-6680	49	23	151	9	665	9	79489890
145	694	3983	-648	-678	-6679	49	23	151	10	766	10	79489890
156	681	3923	-647	-681	-6644	58	20	148	11	818	11	79489893
138	680	3862	-649	-676	-6682	58	20	148	12	918	12	79489894
164	673	3883	-657	-678	-6718	54	28	146	13	971	13	79489896
164	695	3921	-644	-671	-6679	54	28	146	14	1071	14	79489897
141	704	3990	-639	-670	-6695	58	22	148	15	1124	15	79489898
138	688	3981	-646	-677	-6678	58	22	148	16	1224	16	79489905
159	685	3947	-650	-680	-6704	57	17	151	17	1277	17	79489905
158	676	3905	-645	-679	-6699	57	17	151	18	1377	18	79489908
149	703	3914	-634	-678	-6683	58	16	156	19	1430	19	79489941
148	705	3954	-641	-678	-6666	58	16	156	20	1530	20	79489942
164	680	3984	-652	-679	-6665	59	21	155	21	1583	21	79489946
160	694	3971	-654	-677	-6684	59	21	155	22	1683	22	79489947
162	705	3914	-654	-674	-6686	61	23	153	23	1736	23	79489950
146	691	3906	-650	-675	-6695	61	23	153	24	1836	24	79489950
140	697	3913	-651	-674	-6680	62	16	156	25	1889	25	79489952
164	695	3969	-649	-668	-6677	62	16	156	26	1989	26	79489953
152	686	3989	-643	-675	-6666	67	9	157	27	2042	27	79489954
152	691	3939	-648	-678	-6669	67	9	157	28	2142	28	79489964
159	687	3923	-646	-679	-6682	70	14	164	29	2195	29	79489964
143	694	3896	-639	-680	-6697	70	14	164	30	2295	30	79489967
131	687	3986	-645	-678	-6680	72	16	160	31	2348	31	79490011
142	673	3967	-652	-680	-6683	72	16	160	32	2448	32	79490011
150	683	3962	-655	-681	-6671	71	9	155	33	2501	33	79490014
135	672	3946	-648	-677	-6696	71	9	155	34	2601	34	79490015
155	683	3906	-649	-679	-6701	70	14	158	35	2654	35	79490017
161	680	3934	-648	-675	-6667	70	14	158	36	2754	36	79490018
158	699	3927	-649	-670	-6671	73	5	155	37	2807	37	79490020
158	691	3933	-645	-679	-6703	73	5	155	38	2907	38	79490022
159	686	3956	-643	-683	-6699	74	2	156	39	2960	39	79490023
159	706	3932	-641	-682	-6669	74	2	156	40	3060	40	79490024
147	706	3938	-641	-682	-6687	78	10	156	41	3113	41	79490026
149	676	3960	-651	-686	-6673	78	10	156	42	3213	42	79490027
169	699	3959	-650	-682	-6673	75	3	163	43	3266	43	79490061
170	680	3939	-648	-674	-6678	75	3	163	44	3366	44	79490062
152	691	3952	-652	-677	-6690	78	4	162	45	3419	45	79490064
186	703	3934	-660	-678	-6692	78	4	162	46	3519	46	79490065
157	696	3948	-653	-675	-6698	79	5	157	47	3572	47	79490067
169	688	3935	-642	-672	-6687	79	5	157	48	3672	48	79490069
173	707	3990	-648	-679	-6701	77	1	159	49	3725	49	79490069
165	687	3954	-646	-674	-6694	77	1	159	50	3826	50	79490072
160	706	3940	-640	-680	-6718	73	-1	159	51	3878	51	79490073
144	719	3917	-643	-682	-6686	73	-1	159	52	3979	52	79490076
163	710	3969	-648	-681	-6676	73	-5	165	53	4031	53	79490109
151	689	3949	-651	-676	-6698	73	-5	165	54	4131	54	79490110
155	706	3966	-645	-676	-6693	77	-3	161	55	4184	55	79490112
167	697	3937	-649	-677	-6723	77	-3	161	56	4284	56	79490113
167	693	3951	-657	-675	-6715	78	-8	166	57	4337	57	79490114
152	705	3932	-649	-672	-6707	78	-8	166	58	4437	58	79490116
157	705	3947	-645	-677	-6715	81	-13	165	59	4490	59	79490116
157	683	3948	-644	-677	-6675	81	-13	165	60	4590	60	79490121
166	699	3940	-646	-678	-6689	80	-16	164	61	4643	61	79490121
153	700	3940	-644	-685	-6696	80	-16	164	62	4743	62	79490124
159	699	3941	-644	-680	-6697	78	-12	170	63	4796	63	79490157
153	697	3943	-647	-680	-6693	78	-12	170	64	4896	64	79490158
168	713	3942	-649	-677	-6704	74	-16	164	65	4949	65	79490161
173	708	3948	-650	-680	-6704	74	-16	164	66	5049	66	79490161
163	709	3975	-650	-675	-6704	77	-15	163	67	5102	67	79490163
172	694	3936	-649	-676	-6692	77	-15	163	68	5202	68	79490164
170	708	3953	-649	-677	-6688	78	-16	166	69	5255	69	79490167
167	713	3934	-649	-682	-6694	78	-16	166	70	5355	70	79490169
172	714	3936	-646	-673	-6714	78	-20	168	71	5408	71	79490171
157	696	3914	-642	-674	-6694	78	-20	168	72	5508	72	79490173
172	709	3954	-643	-680	-6681	81	-29	167	73	5561	73	79490205
161	712	3937	-645	-682	-6679	81	-29	167	74	5661	74	79490206
176	713	3956	-642	-682	-6708	78	-24	168	75	5714	75	79490209
165	723	3909	-649	-683	-6699	78	-24	168	76	5814	76	79490209
176	704	3931	-650	-675	-6695	78	-26	166	77	5867	77	79490212
177	712	3935	-650	-675	-6697	78	-26	166	78	5967	78	79490212
183	726	3937	-648	-673	-6691	76	-20	164	79	6020	79	79490214
174	698	3937	-653	-678	-6711	76	-20	164	80	6120	80	79490220
175	702	3965	-650	-677	-6709	87	-31	171	81	6173	81	79490220
157	715	3944	-645	-677	-6701	87	-31	171	82	6274	82	79490255
154	705	3958	-646	-679	-6694	80	-34	170	83	6326	83	79490255
169	703	3911	-648	-684	-6692	80	-34	170	84	6426	84	79490257
163	718	3942	-649	-679	-6713	83	-33	169	85	6479	85	79490258
169	705	3959	-644	-680	-6700	83	-33	169	86	6579	86	79490259
155	712	3940	-648	-676	-6685	82	-38	168	87	6632	87	79490262
168	706	3949	-651	-674	-6703	82	-38	168	88	6733	88	79490263
162	700	3944	-651	-677	-6696	77	-27	163	89	6786	89	79490265
167	708	3925	-646	-677	-6700	77	-27	163	90	6886	90	79490270
170	719	3953	-650	-674	-6686	78	-36	166	91	6939	91	79490270
166	711	3971	-647	-677	-6670	78	-36	166	92	7039	92	79490279
171	725	3938	-642	-679	-6697	80	-38	168	93	7092	93	79490280
146	717	3963	-644	-679	-6687	80	-38	168	94	7192	94	79490284
165	723	3958	-644	-678	-6694	82	-42	162	95	7245	95	79490316
171	716	3935	-646	-674	-6689	82	-42	162	96	7345	96	79490317
161	724	3936	-644	-678	-6688	80	-46	166	97	7398	97	79490320
166	716	3923	-644	-680	-6704	80	-46	166	98	7499	98	79490320
174	721	3948	-649	-681	-6723	79	-35	161	99	7551	99	79490322
173	718	3917	-648	-677	-6682	79	-35	161	100	7651	100	79490324
165	716	3956	-651	-673	-6699	75	-37	167	101	7704	101	79490324
153	717	3951	-644	-678	-6684	75	-37	167	102	7804	102	79490329
167	714	3944	-646	-680	-6678	77	-45	171	103	7857	103	79490330
158	706	3948	-648	-677	-6679	77	-45	171	104	7957	104	79490332
157	725	3950	-643	-675	-6689	81	-47	165	105	8010	105	79490364
158	717	3954	-646	-674	-6702	81	-47	165	106	8110	106	79490365
171	731	3943	-648	-677	-6693	74	-56	166	107	8163	107	79490368
163	730	3923	-650	-674	-6687	74	-56	166	108	8264	108	79490369
173	731	3944	-653	-678	-6715	74	-48	158	109	8317	109	79490372
172	725	3929	-648	-680	-6686	74	-48	158	110	8417	110	79490373
166	720	3937	-647	-679	-6668	79	-49	161	111	8470	111	79490374
166	726	3938	-646	-672	-6704	79	-49	161	112	8570	112	79490379
158	731	3939	-650	-670	-6691	76	-52	160	113	8623	113	79490380
150	719	3920	-644	-675	-6688	76	-52	160	114	8723	114	79490413
152	722	3932	-646	-681	-6696	78	-58	160	115	8776	115	79490414
160	714	3956	-648	-682	-6688	78	-58	160	116	8876	116	79490416
174	719	3937	-646	-683	-6689	74	-60	160	117	8929	117	79490418
161	714	3952	-648	-679	-6702	74	-60	160	118	9029	118	79490418
172	731	3949	-649	-676	-6704	72	-62	152	119	9082	119	79490421
178	734	3924	-649	-676	-6710	72	-62	152	120	9182	120	79490422
183	730	3934	-646	-672	-6690	67	-61	153	121	9235	121	79490423
178	726	3925	-647	-670	-6695	67	-61	153	122	9336	122	79490426
176	717	3944	-643	-672	-6710	69	-65	161	123	9388	123	79490427
164	727	3925	-644	-673	-6700	69	-65	161	124	9488	124	79490461
162	725	3975	-647	-683	-6710	68	-72	154	125	9541	125	79490461
150	740	3977	-645	-680	-6704	68	-72	154	126	9641	126	79490463
146	724	3942	-644	-681	-6685	69	-65	157	127	9694	127	79490465
159	749	3946	-648	-677	-6670	69	-65	157	128	9795	128	79490465
171	733	3942	-646	-676	-6681	63	-67	149	129	9847	129	79490468
177	739	3945	-648	-678	-6702	63	-67	149	130	9947	130	79490469
169	722	3955	-651	-679	-6692	62	-72	158	131	10000	131	79490471
156	726	3925	-650	-675	-6701	62	-72	158	132	10100	132	79490477
148	733	3926	-652	-676	-6689	65	-77	157	133	10153	133	79490478
159	729	3922	-647	-675	-6694	65	-77	157	134	10253	134	79490487
156	725	3950	-642	-679	-6675	59	-87	155	135	10306	135	79490487
135	728	3943	-642	-678	-6687	59	-87	155	136	10406	136	79490489
152	731	3932	-649	-682	-6707	57	-79	159	137	10459	137	79490523
159	727	3927	-648	-685	-6661	57	-79	159	138	10559	138	79490523
165	728	3953	-647	-682	-6663	54	-86	150	139	10612	139	79490526
176	744	3909	-647	-680	-6696	54	-86	150	140	10712	140	79490527
172	732	3919	-647	-681	-6706	53	-87	153	141	10765	141	79490530
165	721	3952	-654	-677	-6704	53	-87	153	142	10865	142	79490530
170	735	3941	-651	-675	-6679	48	-84	154	143	10918	143	79490533
172	732	3953	-646	-679	-6707	48	-84	154	144	11018	144	79490538
169	728	3948	-643	-672	-6684	42	-86	152	145	11071	145	79490538
155	731	3929	-647	-675	-6697	42	-86	152	146	11171	146	79490548
161	736	3967	-647	-679	-6698	48	-88	160	147	11224	147	79490549
149	742	3934	-643	-681	-6687	48	-88	160	148	11324	148	79490551
160	737	3945	-643	-680	-6686	38	-92	152	149	11377	149	79490585
142	731	3921	-646	-674	-6684	38	-92	152	150	11477	150	79490586
171	751	3925	-649	-682	-6707	39	-85	167	151	11530	151	79490588
158	729	3939	-650	-677	-6676	39	-85	167	152	11631	152	79490589
160	750	3941	-652	-678	-6674	36	-96	156	153	11683	153	79490590
145	728	3953	-648	-674	-6703	36	-96	156	154	11784	154	79490592
147	747	3960	-650	-680	-6698	24	-88	160	155	11836	155	79490594
160	741	3952	-648	-675	-6674	24	-88	160	156	11937	156	79490596
132	734	3951	-645	-675	-6685	31	-91	165	157	11989	157	79490597
136	742	3958	-646	-680	-6694	31	-91	165	158	12089	158	79490600
135	742	3954	-644	-678	-6685	24	-94	164	159	12142	159	79490652
148	744	3929	-645	-678	-6688	24	-94	164	160	12242	160	79490652
154	750	3951	-644	-680	-6694	22	-78	166	161	12295	161	79490655
148	743	3943	-650	-682	-6678	22	-78	166	162	12395	162	79490656
150	747	3945	-649	-680	-6684	22	-90	158	163	12448	163	79490658
153	725	3928	-648	-678	-6683	22	-90	158	164	12548	164	79490659
152	727	3958	-648	-672	-6703	13	-79	165	165	12601	165	79490660
152	723	3933	-649	-671	-6689	13	-79	165	166	12701	166	79490663
150	737	3943	-649	-670	-6678	17	-87	167	167	12754	167	79490664
137	737	3910	-645	-674	-6655	17	-87	167	168	12854	168	79490666
152	723	3930	-642	-682	-6675	9	-79	165	169	12907	169	79490667
143	727	3933	-645	-679	-6679	9	-79	165	170	13007	170	79490668
173	749	3966	-644	-681	-6683	15	-79	171	171	13060	171	79490670
146	736	3944	-648	-680	-6711	15	-79	171	172	13160	172	79490671
157	742	3934	-650	-677	-6706	10	-82	166	173	13213	173	79490705
148	738	3946	-651	-681	-6705	10	-82	166	174	13313	174	79490706
153	741	3936	-647	-674	-6687	9	-61	169	175	13366	175	79490708
159	738	3935	-653	-676	-6694	9	-61	169	176	13466	176	79490709
134	726	3948	-649	-672	-6675	14	-70	170	177	13519	177	79490709
136	742	3948	-647	-679	-6701	14	-70	170	178	13619	178	79490712
137	750	3947	-643	-680	-6692	2	-62	160	179	13672	179	79490713
139	734	3926	-643	-677	-6689	2	-62	160	180	13772	180	79490715
145	748	3960	-644	-679	-6708	10	-62	164	181	13825	181	79490720
140	728	3955	-643	-683	-6706	10	-62	164	182	13925	182	79490721
128	743	3940	-644	-682	-6714	7	-67	163	183	13978	183	79490755
145	745	3939	-652	-678	-6684	7	-67	163	184	14078	184	79490757
145	737	3934	-651	-679	-6692	4	-48	166	185	14131	185	79490758
147	746	3911	-651	-676	-6696	4	-48	166	186	14231	186	79490760
136	721	3948	-648	-675	-6693	8	-62	166	187	14284	187	79490761
146	732	3952	-650	-676	-6686	8	-62	166	188	14384	188	79490763
129	744	3934	-648	-677	-6698	0	-38	152	189	14437	189	79490764
124	743	3954	-642	-679	-6691	0	-38	152	190	14537	190	79490765
129	729	3940	-642	-674	-6679	7	-47	155	191	14590	191	79490768
156	744	3943	-641	-680	-6694	7	-47	155	192	14691	192	79490769
134	750	3933	-647	-680	-6701	7	-45	161	193	14743	193	79490803
141	753	3954	-650	-677	-6670	7	-45	161	194	14843	194	79490804
147	735	3923	-645	-675	-6684	2	-38	156	195	14896	195	79490805
144	729	3924	-650	-675	-6672	2	-38	156	196	14996	196	79490806
126	718	3929	-652	-677	-6656	9	-43	157	197	15049	197	79490807
149	729	3942	-650	-677	-6692	9	-43	157	198	15149	198	79490810
129	727	3921	-644	-672	-6699	0	-30	144	199	15202	199	79490810
128	742	3944	-646	-676	-6673	0	-30	144	200	15302	200	79490814
129	725	3935	-648	-678	-6679	3	-43	147	201	15355	201	79490814
135	738	3924	-639	-680	-6688	3	-43	147	202	15455	202	79490815
112	762	3939	-641	-683	-6706	6	-32	150	203	15508	203	79490850
137	761	3948	-646	-680	-6712	6	-32	150	204	15609	204	79490850
130	747	3932	-648	-681	-6706	0	-30	142	205	15661	205	79490854
133	732	3960	-647	-680	-6690	0	-30	142	206	15761	206	79490854
135	735	3930	-651	-676	-6680	1	-35	137	207	15814	207	79490856
141	741	3955	-654	-675	-6675	1	-35	137	208	15914	208	79490857
134	723	3934	-649	-681	-6701	0	-22	136	209	15967	209	79490858
121	719	3936	-648	-681	-6710	0	-22	136	210	16067	210	79490865
109	736	3943	-641	-674	-6687	2	-32	144	211	16120	211	79490865
133	738	3971	-640	-671	-6718	2	-32	144	212	16220	212	79490869
130	741	3938	-642	-676	-6699	6	-24	140	213	16273	213	79490902
161	743	3936	-647	-680	-6697	6	-24	140	214	16374	214	79490903
135	731	3968	-643	-677	-6683	-6	-28	136	215	16426	215	79490906
143	740	3946	-646	-682	-6704	-6	-28	136	216	16526	216	79490906
154	735	3959	-647	-681	-6672	-3	-25	135	217	16579	217	79490908
136	741	3931	-650	-678	-6682	-3	-25	135	218	16679	218	79490909
139	733	3908	-649	-676	-6714	-3	-17	127	219	16732	219	79490910
133	749	3953	-648	-679	-6704	-3	-17	127	220	16832	220	79490913
120	723	3945	-648	-675	-6662	-4	-26	130	221	16885	221	79490917
114	731	3968	-644	-678	-6702	-4	-26	130	222	16985	222	79490918
116	731	3936	-640	-678	-6693	-5	-11	135	223	17038	223	79490949
129	731	3942	-643	-680	-6683	-5	-11	135	224	17139	224	79490949
129	732	3952	-644	-678	-6672	-5	-13	131	225	17191	225	79490952
144	737	3922	-644	-678	-6682	-5	-13	131	226	17291	226	79490953
133	739	3935	-647	-682	-6709	-2	-12	126	227	17344	227	79490955
127	745	3926	-650	-679	-6677	-2	-12	126	228	17445	228	79490956
138	741	3939	-651	-677	-6654	-1	-7	121	229	17497	229	79490957
139	728	3925	-648	-673	-6683	-1	-7	121	230	17597	230	79490961
129	707	3921	-648	-680	-6698	-5	-7	131	231	17650	231	79490962
117	727	3949	-646	-674	-6686	-5	-7	131	232	17750	232	79490964
140	730	3942	-648	-674	-6680	10	2	120	233	17803	233	79490996
125	717	3953	-644	-680	-6707	10	2	120	234	17903	234	79490997
135	731	3942	-648	-682	-6689	-4	0	122	235	17956	235	79491000
113	725	3936	-644	-681	-6681	-4	0	122	236	18057	236	79491000
124	723	3925	-645	-680	-6683	-2	-2	120	237	18109	237	79491004
141	730	3960	-648	-674	-6708	-2	-2	120	238	18210	238	79491004
123	712	3948	-645	-673	-6687	-5	7	119	239	18262	239	79491006
128	717	3969	-648	-681	-6705	-5	7	119	240	18363	240	79491012
118	736	3937	-651	-680	-6684	7	-3	119	241	18416	241	79491012
119	719	3943	-647	-671	-6676	7	-3	119	242	18516	242	79491046
117	729	3948	-645	-675	-6674	-2	8	116	243	18569	243	79491047
103	718	3934	-643	-678	-6692	-2	8	116	244	18669	244	79491049
127	740	3952	-644	-673	-6674	1	9	123	245	18722	245	79491050
115	718	3965	-644	-678	-6687	1	9	123	246	18822	246	79491051
131	713	3938	-646	-677	-6703	3	11	107	247	18875	247	79491054
131	729	3947	-646	-676	-6681	3	11	107	248	18976	248	79491054
126	727	3949	-650	-676	-6677	0	10	108	249	19028	249	79491056
131	711	3952	-649	-674	-6675	0	10	108	250	19128	250	79491062
109	718	3973	-649	-676	-6674	3	9	111	251	19181	251	79491062
125	718	3932	-648	-671	-6694	3	9	111	252	19281	252	79491071
113	714	3933	-649	-677	-6677	8	18	106	253	19334	253	79491072
116	724	3944	-646	-682	-6692	8	18	106	254	19435	254	79491075
109	726	3945	-645	-680	-6687	3	15	111	255	19488	255	79491110
126	727	3941	-645	-682	-6720	3	15	111	256	19588	256	79491111
115	713	3937	-645	-680	-6689	7	19	105	257	19641	257	79491114
129	740	3946	-644	-682	-6690	7	19	105	258	19742	258	79491115
130	716	3963	-645	-678	-6688	4	18	100	259	19794	259	79491117
139	711	3967	-649	-678	-6687	4	18	100	260	19894	260	79491118
127	724	3939	-648	-681	-6697	0	18	102	261	19947	261	79491119
113	714	3935	-651	-681	-6718	0	18	102	262	20047	262	79491121
110	708	3944	-651	-676	-6677	6	18	100	263	20100	263	79491123
119	708	3950	-646	-681	-6682	6	18	100	264	20200	264	79491156
133	714	3962	-646	-680	-6674	9	13	111	265	20253	265	79491157
117	709	3954	-648	-675	-6677	9	13	111	266	20353	266	79491157
121	710	3961	-647	-680	-6683	10	16	104	267	20406	267	79491160
103	696	3925	-647	-679	-6718	10	16	104	268	20506	268	79491160
120	703	3926	-649	-681	-6697	11	19	97	269	20559	269	79491163
135	717	3940	-650	-680	-6680	11	19	97	270	20659	270	79491164
134	707	3924	-649	-679	-6716	13	19	97	271	20712	271	79491166
103	708	3944	-654	-681	-6714	13	19	97	272	20812	272	79491169
111	708	3962	-650	-675	-6671	14	18	100	273	20865	273	79491170
112	701	3938	-649	-680	-6671	14	18	100	274	20965	274	79491204
114	697	3928	-649	-677	-6681	16	8	106	275	21018	275	79491205
115	724	3950	-644	-677	-6700	16	8	106	276	21118	276	79491206
117	720	3949	-645	-674	-6684	17	19	105	277	21171	277	79491208
129	737	3949	-645	-681	-6668	17	19	105	278	21271	278	79491208
119	717	3954	-643	-681	-6681	12	16	98	279	21324	279	79491211
129	715	3950	-645	-676	-6692	12	16	98	280	21424	280	79491212
134	706	3939	-648	-677	-6689	17	17	101	281	21477	281	79491215
111	697	3966	-649	-679	-6717	17	17	101	282	21577	282	79491215
97	706	3952	-652	-678	-6701	20	16	102	283	21630	283	79491218
116	698	3952	-649	-675	-6692	20	16	102	284	21730	284	79491252
122	711	3938	-647	-673	-6684	14	12	106	285	21783	285	79491253
97	702	3939	-649	-677	-6681	14	12	106	286	21883	286	79491255
106	713	3953	-646	-677	-6661	15	15	99	287	21936	287	79491255
119	694	3910	-646	-678	-6671	15	15	99	288	22036	288	79491257
132	706	3950	-645	-684	-6686	18	22	98	289	22089	289	79491259
121	707	3943	-648	-679	-6687	18	22	98	290	22189	290	79491259
107	695	3967	-650	-675	-6669	21	13	101	291	22242	291	79491264
127	699	3947	-648	-677	-6693	21	13	101	292	22342	292	79491264
122	687	3941	-645	-674	-6688	17	13	107	293	22395	293	79491292
104	695	3946	-647	-674	-6666	17	13	107	294	22495	294	79491294
127	700	3948	-648	-671	-6685	20	12	108	295	22548	295	79491295
104	684	3946	-648	-676	-6682	20	12	108	296	22648	296	79491297
135	691	3938	-649	-677	-6690	22	12	104	297	22701	297	79491298
122	680	3944	-645	-680	-6675	22	12	104	298	22801	298	79491300
133	701	3971	-644	-678	-6698	21	17	103	299	22854	299	79491303
138	694	3933	-645	-679	-6695	21	17	103	300	22954	300	79491304
106	699	3951	-647	-683	-6678	18	16	106	301	23007	301	79491337
127	707	3945	-649	-679	-6695	18	16	106	302	23107	302	79491338
126	693	3960	-649	-677	-6714	29	17	113	303	23160	303	79491341
113	698	3958	-648	-674	-6698	29	17	113	304	23260	304	79491341
121	685	3937	-646	-672	-6706	20	22	106	305	23313	305	79491343
122	687	3944	-646	-677	-6698	20	22	106	306	23413	306	79491344
136	705	3959	-647	-673	-6681	20	18	110	307	23466	307	79491345
123	696	3957	-646	-676	-6675	20	18	110	308	23566	308	79491348
129	694	3951	-644	-675	-6708	25	19	111	309	23619	309	79491348
116	704	3958	-644	-680	-6692	25	19	111	310	23719	310	79491352
130	702	3972	-644	-682	-6697	24	14	118	311	23772	311	79491384
133	694	3958	-647	-684	-6697	24	14	118	312	23872	312	79491385
132	708	3930	-649	-677	-6681	23	17	115	313	23925	313	79491388
113	684	3956	-652	-676	-6676	23	17	115	314	24025	314	79491388
125	691	3936	-651	-676	-6691	20	20	116	315	24078	315	79491390
127	690	3955	-650	-670	-6681	20	20	116	316	24178	316	79491392
127	689	3937	-648	-674	-6702	22	16	114	317	24231	317	79491392
105	689	3959	-647	-668	-6674	22	16	114	318	24332	318	79491398
126	693	3956	-645	-677	-6682	30	12	124	319	24384	319	79491398
121	681	3964	-644	-675	-6693	30	12	124	320	24485	320	79491401
113	689	3942	-643	-678	-6685	30	16	118	321	24537	321	79491434
128	686	3954	-651	-686	-6671	30	16	118	322	24637	322	79491435
126	690	3918	-651	-681	-6674	25	19	121	323	24690	323	79491437
132	685	3964	-647	-674	-6707	25	19	121	324	24790	324	79491438
137	691	3940	-653	-674	-6652	26	20	118	325	24843	325	79491441
121	685	3929	-652	-677	-6669	26	20	118	326	24943	326	79491441
115	681	3945	-648	-673	-6685	19	19	119	327	24996	327	79491443
130	692	3949	-649	-672	-6689	19	19	119	328	25096	328	79491446
131	677	3944	-647	-677	-6668	28	22	122	329	25149	329	79491446
141	686	3957	-646	-681	-6689	28	22	122	330	25249	330	79491481
128	689	3952	-642	-674	-6685	36	16	132	331	25302	331	79491481
140	674	3929	-644	-680	-6686	36	16	132	332	25402	332	79491483
137	696	3960	-649	-682	-6672	34	24	126	333	25455	333	79491485
150	682	3951	-650	-682	-6705	34	24	126	334	25555	334	79491485
138	682	3934	-653	-679	-6685	30	24	124	335	25608	335	79491488
138	700	3946	-651	-676	-6682	30	24	124	336	25708	336	79491489
140	703	3927	-650	-673	-6651	35	27	133	337	25761	337	79491492
122	683	3950	-652	-673	-6686	35	27	133	338	25861	338	79491497
124	676	3968	-649	-669	-6673	42	18	128	339	25914	339	79491497
141	701	3938	-643	-677	-6683	42	18	128	340	26014	340	79491531
130	697	3957	-639	-676	-6665	38	22	136	341	26067	341	79491532
114	696	3962	-644	-677	-6678	38	22	136	342	26168	342	79491534
141	687	3950	-646	-684	-6662	32	24	132	343	26220	343	79491535
142	683	3938	-637	-683	-6692	32	24	132	344	26320	344	79491536
144	687	3960	-643	-675	-6672	34	26	130	345	26373	345	79491539
119	679	3951	-652	-680	-6669	34	26	130	346	26473	346	79491541
139	685	3959	-653	-677	-6676	39	23	137	347	26526	347	79491542
130	689	3934	-648	-672	-6690	39	23	137	348	26626	348	79491543
125	672	3951	-650	-670	-6672	39	21	139	349	26679	349	79491544
152	668	3920	-649	-675	-6682	39	21	139	350	26779	350	79491579
151	690	3967	-648	-674	-6689	42	24	138	351	26832	351	79491580
129	682	3939	-645	-672	-6707	42	24	138	352	26932	352	79491583
130	697	3953	-643	-678	-6669	39	29	143	353	26985	353	79491583
152	687	3960	-645	-681	-6682	39	29	143	354	27085	354	79491585
130	689	3958	-644	-680	-6708	41	29	137	355	27138	355	79491586
148	685	3962	-645	-680	-6693	41	29	137	356	27238	356	79491587
142	684	3936	-650	-678	-6673	46	26	138	357	27291	357	79491591
150	677	3934	-650	-676	-6681	46	26	138	358	27392	358	79491592
144	690	3964	-654	-677	-6672	44	20	142	359	27445	359	79491595
155	679	3947	-650	-674	-6667	44	20	142	360	27545	360	79491627
153	675	3960	-646	-672	-6696	49	23	145	361	27598	361	79491628
139	692	3931	-646	-672	-6677	49	23	145	362	27699	362	79491631
146	697	3951	-643	-673	-6672	54	24	146	363	27752	363	79491631
160	683	3955	-641	-676	-6692	54	24	146	364	27853	364	79491633
134	675	3956	-641	-678	-6699	49	23	141	365	27905	365	79491636
136	697	3945	-641	-678	-6679	49	23	141	366	28005	366	79491637
163	678	3953	-644	-681	-6689	54	22	146	367	28059	367	79491640
134	673	3923	-646	-675	-6690	54	22	146	368	28159	368	79491640
136	697	3944	-646	-672	-6675	55	19	151	369	28213	369	79491643
135	696	3907	-646	-672	-6643	55	19	151	370	28313	370	79491676
137	694	3955	-648	-671	-6661	56	18	146	371	28366	371	79491677
159	691	3912	-650	-671	-6684	56	18	146	372	28466	372	79491680
139	683	3947	-645	-672	-6686	62	18	150	373	28519	373	79491680
138	688	3932	-643	-675	-6676	62	18	150	374	28619	374	79491682
139	693	3962	-644	-679	-6675	57	19	151	375	28672	375	79491683
136	684	3963	-643	-679	-6699	57	19	151	376	28773	376	79491684
154	684	3941	-645	-677	-6682	54	18	152	377	28826	377	79491691
162	691	3945	-644	-678	-6690	54	18	152	378	28926	378	79491691
135	702	3933	-647	-675	-6707	61	17	159	379	28979	379	79491693
154	681	3947	-653	-676	-6674	61	17	159	380	29079	380	79491702
164	683	3963	-649	-674	-6676	66	18	154	381	29132	381	79491703
155	692	3898	-648	-669	-6682	66	18	154	382	29232	382	79491736
156	689	3947	-648	-672	-6676	69	11	155	383	29285	383	79491737
151	689	3939	-648	-672	-6680	69	11	155	384	29385	384	79491740
146	693	3931	-643	-673	-6677	67	11	155	385	29438	385	79491740
148	708	3941	-647	-679	-6694	67	11	155	386	29538	386	79491742
164	701	3965	-645	-682	-6672	69	7	155	387	29591	387	79491744
167	689	3941	-648	-684	-6687	69	7	155	388	29691	388	79491745
151	691	3939	-649	-682	-6689	68	10	156	389	29744	389	79491748
161	688	3923	-647	-676	-6701	68	10	156	390	29845	390	79491749
156	700	3961	-646	-676	-6676	70	10	158	391	29897	391	79491752
168	703	3926	-652	-671	-6700	70	10	158	392	29997	392	79491785
145	688	3959	-645	-669	-6695	69	5	167	393	30050	393	79491785
139	693	3936	-647	-674	-6676	69	5	167	394	30150	394	79491788
149	693	3961	-645	-680	-6649	79	11	161	395	30203	395	79491789
161	695	3963	-648	-675	-6669	79	11	161	396	30303	396	79491791
144	694	3955	-650	-672	-6688	74	6	160	397	30356	397	79491793
140	690	3913	-645	-681	-6675	74	6	160	398	30456	398	79491793
165	709	3962	-646	-678	-6674	70	0	158	399	30509	399	79491800
161	704	3939	-649	-681	-6698	70	0	158	400	30609	400	79491800
153	690	3929	-649	-678	-6687	77	3	165	401	30662	401	79491802
173	694	3968	-649	-674	-6669	77	3	165	402	30763	402	79491835
154	694	3955	-648	-674	-6694	77	3	165	403	30816	403	79491836
145	688	3947	-649	-676	-6722	77	3	165	404	30916	404	79491839
177	689	3948	-648	-673	-6690	76	0	158	405	30969	405	79491840
170	706	3965	-645	-676	-6691	76	0	158	406	31069	406	79491841
179	703	3948	-645	-677	-6712	79	-3	167	407	31122	407	79491843
147	713	3964	-644	-682	-6700	79	-3	167	408	31222	408	79491844
161	690	3943	-648	-680	-6689	78	-6	164	409	31275	409	79491847
169	680	3957	-648	-677	-6707	78	-6	164	410	31375	410	79491848
161	716	3936	-647	-682	-6687	80	-12	166	411	31428	411	79491850
172	704	3936	-647	-682	-6691	80	-12	166	412	31529	412	79491883
160	691	3954	-652	-677	-6676	78	-12	172	413	31581	413	79491883
163	695	3938	-649	-672	-6692	78	-12	172	414	31681	414	79491886
156	693	3946	-645	-674	-6685	79	-11	159	415	31734	415	79491888
161	711	3945	-650	-672	-6682	79	-11	159	416	31834	416	79491890
154	695	3938	-645	-671	-6702	76	-8	164	417	31887	417	79491891
155	700	3944	-643	-676	-6670	76	-8	164	418	31987	418	79491893
157	709	3940	-644	-680	-6659	78	-12	164	419	32040	419	79491898
147	698	3939	-647	-681	-6683	78	-12	164	420	32140	420	79491899
160	699	3947	-649	-677	-6698	81	-15	171	421	32193	421	79491931
170	712	3943	-647	-681	-6665	81	-15	171	422	32293	422	79491932
152	707	3954	-651	-675	-6692	79	-23	169	423	32346	423	79491933
179	697	3969	-652	-675	-6694	79	-23	169	424	32446	424	79491935
182	716	3923	-649	-678	-6715	78	-20	168	425	32499	425	79491936
161	709	3930	-651	-676	-6697	78	-20	168	426	32600	426	79491938
164	697	3920	-650	-678	-6716	81	-19	171	427	32652	427	79491939
178	704	3938	-646	-678	-6684	81	-19	171	428	32752	428	79491941
171	719	3954	-646	-677	-6673	81	-25	163	429	32805	429	79491946
162	705	3925	-645	-678	-6692	81	-25	163	430	32905	430	79491946
161	711	3924	-649	-678	-6720	84	-26	172	431	32958	431	79491981
162	716	3974	-646	-677	-6694	84	-26	172	432	33058	432	79491982
184	710	3952	-646	-676	-6670	79	-29	171	433	33111	433	79491983
178	709	3965	-650	-677	-6694	79	-29	171	434	33211	434	79491985
167	708	3941	-647	-678	-6681	82	-28	170	435	33264	435	79491985
194	701	3951	-647	-679	-6699	82	-28	170	436	33364	436	79491988
172	705	3913	-649	-675	-6694	80	-28	168	437	33417	437	79491989
173	712	3937	-650	-678	-6686	80	-28	168	438	33517	438	79491991
162	706	3957	-649	-677	-6701	81	-29	165	439	33570	439	79491996
159	711	3963	-647	-680	-6690	81	-29	165	440	33670	440	79491997
162	710	3950	-650	-679	-6704	84	-32	166	441	33723	441	79492007
155	710	3959	-649	-677	-6735	84	-32	166	442	33823	442	79492008
161	713	3946	-645	-672	-6697	80	-32	168	443	33876	443	79492041
168	716	3934	-645	-678	-6695	80	-32	168	444	33976	444	79492043
166	722	3926	-648	-677	-6710	78	-38	166	445	34029	445	79492044
170	708	3950	-647	-674	-6709	78	-38	166	446	34129	446	79492045
164	714	3934	-650	-672	-6702	85	-39	169	447	34182	447	79492046
153	703	3950	-648	-672	-6711	85	-39	169	448	34282	448	79492048
165	711	3951	-647	-679	-6704	83	-39	161	449	34335	449	79492049
184	721	3950	-650	-676	-6685	83	-39	161	450	34435	450	79492050
169	716	3955	-645	-676	-6696	80	-42	162	451	34488	451	79492056
168	722	3927	-646	-679	-6728	80	-42	162	452	34588	452	79492057
188	710	3928	-648	-678	-6720	80	-44	160	453	34641	453	79492066
184	706	3906	-646	-679	-6670	80	-44	160	454	34741	454	79492066
166	721	3929	-650	-676	-6709	77	-47	165	455	34794	455	79492069
167	722	3915	-649	-676	-6701	77	-47	165	456	34894	456	79492103
178	735	3934	-649	-678	-6665	76	-40	166	457	34947	457	79492104
171	705	3941	-648	-675	-6671	76	-40	166	458	35048	458	79492106
156	727	3942	-647	-679	-6718	77	-47	157	459	35100	459	79492107
168	718	3934	-645	-682	-6695	77	-47	157	460	35200	460	79492109
155	713	3959	-646	-680	-6658	77	-47	161	461	35254	461	79492110
161	708	3940	-645	-680	-6689	77	-47	161	462	35354	462	79492111
163	722	3934	-645	-682	-6683	75	-51	155	463	35407	463	79492115
157	710	3938	-647	-679	-6683	75	-51	155	464	35507	464	79492116
181	726	3936	-654	-677	-6684	77	-55	159	465	35560	465	79492119
171	734	3905	-650	-681	-6701	77	-55	159	466	35661	466	79492151
164	729	3957	-648	-676	-6701	75	-57	159	467	35714	467	79492152
148	720	3938	-649	-676	-6697	75	-57	159	468	35814	468	79492155
163	734	3921	-646	-683	-6675	66	-60	152	469	35867	469	79492156
166	726	3913	-643	-678	-6680	66	-60	152	470	35967	470	79492157
154	727	3971	-645	-673	-6693	71	-55	161	471	36020	471	79492159
155	724	3950	-645	-680	-6706	71	-55	161	472	36120	472	79492160
144	731	3964	-645	-680	-6708	66	-60	148	473	36173	473	79492164
170	730	3945	-648	-682	-6697	66	-60	148	474	36273	474	79492166
163	731	3947	-646	-680	-6663	67	-65	159	475	36326	475	79492198
171	713	3949	-649	-683	-6691	67	-65	159	476	36426	476	79492199
160	726	3944	-655	-682	-6694	76	-60	162	477	36479	477	79492201
152	725	3944	-651	-673	-6703	76	-60	162	478	36579	478	79492202
161	719	3937	-653	-671	-6690	67	-73	157	479	36632	479	79492203
172	721	3916	-645	-676	-6688	67	-73	157	480	36732	480	79492206
162	724	3957	-643	-676	-6663	68	-72	158	481	36785	481	79492207
157	733	3931	-642	-674	-6678	68	-72	158	482	36885	482	79492208
163	734	3936	-645	-680	-6695	65	-75	147	483	36938	483	79492214
165	741	3944	-641	-683	-6692	65	-75	147	484	37038	484	79492214
166	738	3948	-645	-681	-6666	65	-71	159	485	37091	485	79492249
159	732	3932	-651	-679	-6707	65	-71	159	486	37191	486	79492250
140	728	3946	-653	-677	-6689	58	-76	160	487	37244	487	79492251
174	724	3951	-652	-680	-6694	58	-76	160	488	37344	488	79492253
158	725	3937	-650	-674	-6695	55	-79	149	489	37397	489	79492255
175	725	3919	-648	-677	-6703	55	-79	149	490	37497	490	79492256
164	725	3942	-646	-677	-6698	56	-78	162	491	37550	491	79492257
160	727	3958	-644	-676	-6670	56	-78	162	492	37650	492	79492259
159	725	3946	-642	-675	-6707	49	-81	143	493	37703	493	79492264
157	728	3948	-644	-678	-6687	49	-81	143	494	37803	494	79492265
145	718	3922	-642	-682	-6671	59	-85	155	495	37856	495	79492274
159	739	3944	-647	-678	-6678	59	-85	155	496	37956	496	79492275
150	737	3935	-646	-681	-6698	45	-85	157	497	38009	497	79492277
155	747	3932	-651	-683	-6694	45	-85	157	498	38109	498	79492310
161	731	3911	-649	-677	-6681	43	-87	153	499	38162	499	79492311
165	730	3914	-649	-676	-6669	43	-87	153	500	38262	500	79492313
159	723	3923	-653	-678	-6713	43	-87	161	501	38315	501	79492314
159	726	3947	-648	-671	-6685	43	-87	161	502	38416	502	79492316
155	727	3947	-641	-672	-6688	38	-92	148	503	38469	503	79492317
150	740	3937	-638	-680	-6674	38	-92	148	504	38569	504	79492318
145	729	3923	-644	-678	-6673	40	-86	160	505	38622	505	79492321
157	720	3927	-646	-684	-6677	40	-86	160	506	38722	506	79492322
159	740	3945	-644	-680	-6681	35	-93	165	507	38775	507	79492355
147	744	3943	-642	-679	-6690	35	-93	165	508	38875	508	79492356
163	750	3946	-650	-674	-6685	28	-94	158	509	38928	509	79492358
158	721	3952	-655	-682	-6667	28	-94	158	510	39028	510	79492359
146	722	3945	-652	-678	-6688	37	-87	165	511	39081	511	79492360
157	749	3895	-650	-676	-6681	37	-87	165	512	39181	512	79492363
154	727	3938	-650	-671	-6673	19	-89	159	513	39234	513	79492364
168	726	3961	-646	-670	-6683	19	-89	159	514	39334	514	79492365
154	725	3962	-641	-673	-6689	21	-81	173	515	39387	515	79492372
168	750	3954	-644	-681	-6688	21	-81	173	516	39487	516	79492375
147	738	3947	-648	-680	-6691	24	-92	164	517	39540	517	79492407
151	742	3940	-650	-683	-6699	24	-92	164	518	39640	518	79492408
160	730	3956	-649	-674	-6705	12	-84	166	519	39693	519	79492410
154	750	3951	-646	-678	-6654	12	-84	166	520	39793	520	79492412
160	737	3964	-654	-675	-6684	22	-82	174	521	39846	521	79492412
156	719	3938	-656	-678	-6684	22	-82	174	522	39946	522	79492414
148	719	3902	-650	-674	-6690	7	-77	167	523	39999	523	79492416
134	723	3931	-646	-672	-6696	7	-77	167	524	40099	524	79492417
119	731	3944	-641	-675	-6700	12	-70	170	525	40152	525	79492419
143	739	3931	-643	-674	-6682	12	-70	170	526	40252	526	79492420
143	734	3951	-645	-674	-6668	8	-82	168	527	40305	527	79492455
158	746	3957	-642	-680	-6694	8	-82	168	528	40405	528	79492455
133	751	3937	-646	-682	-6702	3	-71	169	529	40458	529	79492457
153	743	3955	-650	-679	-6683	3	-71	169	530	40558	530	79492458
159	747	3968	-651	-678	-6712	17	-71	171	531	40611	531	79492459
145	747	3931	-649	-676	-6694	17	-71	171	532	40711	532	79492462
147	733	3934	-650	-671	-6663	5	-61	161	533	40764	533	79492462
132	725	3949	-656	-674	-6676	5	-61	161	534	40864	534	79492464
133	735	3936	-646	-673	-6707	10	-58	172	535	40917	535	79492466
127	725	3911	-642	-674	-6691	10	-58	172	536	41017	536	79492466
128	741	3937	-640	-677	-6674	8	-64	164	537	41070	537	79492503
133	737	3939	-645	-680	-6706	8	-64	164	538	41170	538	79492504
141	736	3937	-637	-681	-6718	4	-48	162	539	41223	539	79492506
153	750	3935	-641	-678	-6695	4	-48	162	540	41323	540	79492508
138	740	3936	-647	-678	-6679	14	-62	166	541	41376	541	79492509
140	729	3936	-649	-678	-6712	14	-62	166	542	41476	542	79492510
160	740	3932	-653	-678	-6691	1	-39	149	543	41529	543	79492511
136	743	3954	-653	-674	-6685	1	-39	149	544	41629	544	79492514
129	732	3935	-654	-675	-6685	8	-56	158	545	41682	545	79492515
125	733	3929	-647	-676	-6701	8	-56	158	546	41782	546	79492518
121	739	3959	-643	-675	-6695	7	-45	157	547	41835	547	79492571
141	738	3954	-645	-679	-6707	7	-45	157	548	41935	548	79492572
152	714	3955	-646	-686	-6707	3	-35	155	549	41988	549	79492574
148	752	3961	-643	-680	-6682	3	-35	155	550	42088	550	79492575
138	747	3938	-641	-679	-6685	10	-46	152	551	42141	551	79492577
128	734	3945	-648	-682	-6703	10	-46	152	552	42241	552	79492578
141	732	3956	-653	-678	-6697	2	-30	144	553	42294	553	79492579
132	746	3942	-644	-676	-6667	2	-30	144	554	42394	554	79492582
121	736	3960	-648	-677	-6676	3	-41	143	555	42447	555	79492584
139	747	3952	-648	-678	-6685	3	-41	143	556	42547	556	79492586
145	733	3921	-648	-679	-6683	2	-32	144	557	42600	557	79492587
132	737	3942	-643	-673	-6693	2	-32	144	558	42701	558	79492588
126	742	3975	-639	-679	-6684	-2	-30	144	559	42753	559	79492590
141	748	3942	-644	-681	-6696	-2	-30	144	560	42853	560	79492591
129	741	3952	-650	-680	-6676	7	-41	147	561	42906	561	79492593
140	741	3928	-649	-681	-6681	7	-41	147	562	43006	562	79492626
133	736	3945	-642	-673	-6686	-1	-19	139	563	43059	563	79492626
134	737	3937	-647	-672	-6670	-1	-19	139	564	43159	564	79492629
134	743	3938	-651	-680	-6665	0	-32	138	565	43212	565	79492629
123	724	3938	-648	-677	-6710	0	-32	138	566	43312	566	79492632
127	731	3963	-645	-675	-6679	3	-23	135	567	43365	567	79492634
128	728	3919	-648	-678	-6666	3	-23	135	568	43465	568	79492635
106	716	3932	-649	-681	-6694	-3	-19	131	569	43518	569	79492638
127	728	3926	-645	-684	-6698	-3	-19	131	570	43618	570	79492640
128	736	3954	-646	-678	-6700	-3	-23	133	571	43671	571	79492674
133	744	3963	-648	-679	-6677	-3	-23	133	572	43771	572	79492674
137	745	3953	-653	-680	-6702	0	-14	136	573	43824	573	79492676
125	724	3948	-649	-678	-6679	0	-14	136	574	43924	574	79492678
131	726	3925	-647	-673	-6650	-5	-17	135	575	43977	575	79492678
115	737	3929	-649	-680	-6700	-5	-17	135	576	44077	576	79492681
142	709	3934	-648	-677	-6674	-2	-16	132	577	44130	577	79492682
111	735	3953	-648	-672	-6678	-2	-16	132	578	44230	578	79492684
116	716	3961	-644	-672	-6683	-9	-7	121	579	44283	579	79492689
125	726	3922	-644	-675	-6701	-9	-7	121	580	44383	580	79492690
114	723	3922	-646	-677	-6672	1	-17	127	581	44436	581	79492724
153	723	3958	-644	-683	-6670	1	-17	127	582	44536	582	79492725
139	740	3957	-646	-683	-6667	-4	-6	132	583	44589	583	79492726
143	742	3916	-644	-674	-6716	-4	-6	132	584	44689	584	79492728
122	723	3912	-651	-674	-6666	-4	-8	132	585	44742	585	79492728
122	723	3934	-653	-676	-6657	-4	-8	132	586	44842	586	79492731
122	716	3967	-644	-672	-6688	-4	0	116	587	44895	587	79492732
97	728	3943	-642	-676	-6695	-4	0	116	588	44995	588	79492734
109	720	3955	-649	-673	-6663	-4	0	120	589	45048	589	79492737
137	719	3948	-645	-672	-6664	-4	0	120	590	45148	590	79492737
121	728	3939	-640	-674	-6687	3	-1	123	591	45201	591	79492772
114	739	3922	-647	-678	-6692	3	-1	123	592	45301	592	79492773
120	729	3930	-648	-679	-6682	0	4	130	593	45354	593	79492774
110	735	3942	-647	-684	-6702	0	4	130	594	45454	594	79492776
121	737	3933	-645	-679	-6671	-2	4	118	595	45507	595	79492778
100	721	3935	-648	-678	-6668	-2	4	118	596	45607	596	79492779
128	711	3948	-648	-674	-6705	1	13	113	597	45660	597	79492780
99	726	3953	-646	-673	-6699	1	13	113	598	45760	598	79492781
120	736	3948	-648	-676	-6657	3	13	113	599	45813	599	79492783
116	718	3978	-643	-680	-6678	3	13	113	600	45913	600	79492784
104	722	3938	-647	-680	-6687	-1	11	119	601	45966	601	79492819
128	729	3954	-651	-680	-6698	-1	11	119	602	46066	602	79492820
129	727	3951	-643	-682	-6673	4	16	110	603	46119	603	79492822
133	731	3954	-648	-685	-6701	4	16	110	604	46219	604	79492823
122	724	3957	-652	-685	-6709	1	15	109	605	46272	605	79492825
123	726	3947	-647	-677	-6677	1	15	109	606	46372	606	79492826
119	717	3937	-648	-678	-6678	6	16	102	607	46425	607	79492827
119	727	3948	-650	-670	-6693	6	16	102	608	46525	608	79492832
113	722	3961	-649	-670	-6695	6	12	110	609	46578	609	79492832
108	735	3950	-645	-672	-6672	6	12	110	610	46678	610	79492836
119	711	3936	-640	-674	-6692	9	15	107	611	46731	611	79492868
128	711	3947	-644	-676	-6688	9	15	107	612	46831	612	79492869
120	720	3951	-645	-679	-6672	6	20	104	613	46884	613	79492871
121	714	3943	-647	-682	-6680	6	20	104	614	46984	614	79492872
115	730	3965	-646	-681	-6674	7	15	101	615	47037	615	79492874
130	727	3937	-649	-681	-6689	7	15	101	616	47137	616	79492875
115	706	3943	-653	-681	-6671	14	22	100	617	47190	617	79492876
140	705	3914	-654	-676	-6696	14	22	100	618	47290	618	79492881
114	719	3944	-650	-673	-6694	6	10	102	619	47343	619	79492881
110	716	3936	-646	-674	-6685	6	10	102	620	47443	620	79492883
115	704	3918	-648	-674	-6685	14	14	102	621	47496	621	79492916
102	717	3927	-646	-676	-6676	14	14	102	622	47596	622	79492918
93	719	3962	-644	-681	-6684	10	16	104	623	47649	623	79492919
129	712	3965	-644	-681	-6703	10	16	104	624	47749	624	79492920
121	729	3921	-645	-681	-6691	14	20	96	625	47802	625	79492923
133	729	3940	-642	-680	-6689	14	20	96	626	47902	626	79492924
119	720	3983	-649	-681	-6670	18	22	98	627	47955	627	79492925
126	716	3948	-653	-676	-6685	18	22	98	628	48056	628	79492933
120	707	3949	-653	-673	-6686	22	18	106	629	48108	629	79492934
111	710	3962	-649	-672	-6681	22	18	106	630	48209	630	79492941
113	710	3951	-648	-675	-6672	18	16	102	631	48262	631	79492942
133	699	3969	-646	-674	-6681	18	16	102	632	48362	632	79492945
121	707	3932	-643	-676	-6681	17	13	101	633	48415	633	79492978
125	709	3966	-643	-680	-6691	17	13	101	634	48515	634	79492981
125	708	3962	-644	-683	-6675	22	16	102	635	48568	635	79492982
132	718	3949	-645	-679	-6691	22	16	102	636	48669	636	79492983
118	707	3966	-648	-680	-6688	18	18	100	637	48721	637	79492984
130	705	3943	-650	-677	-6686	18	18	100	638	48822	638	79492986
121	702	3945	-651	-676	-6675	15	19	103	639	48874	639	79492988
122	704	3939	-652	-676	-6670	15	19	103	640	48974	640	79492989
124	693	3949	-650	-675	-6665	18	8	108	641	49027	641	79492990
125	710	3954	-648	-672	-6664	18	8	108	642	49128	642	79493024
110	719	3945	-646	-674	-6687	21	15	109	643	49181	643	79493025
119	700	3972	-647	-679	-6681	21	15	109	644	49281	644	79493026
126	702	3928	-645	-679	-6678	23	13	109	645	49334	645	79493028
119	718	3960	-643	-683	-6694	23	13	109	646	49434	646	79493029
124	697	3942	-647	-678	-6694	21	17	107	647	49487	647	79493035
122	700	3939	-651	-682	-6685	21	17	107	648	49587	648	79493035
146	702	3952	-648	-677	-6668	19	17	103	649	49640	649	79493037
113	702	3954	-652	-675	-6681	19	17	103	650	49740	650	79493039
120	690	3971	-648	-677	-6688	28	14	110	651	49793	651	79493039
110	696	3941	-648	-681	-6668	28	14	110	652	49893	652	79493074
122	687	3942	-646	-674	-6716	24	12	110	653	49946	653	79493075
109	714	3954	-646	-673	-6692	24	12	110	654	50046	654	79493076
111	699	3927	-645	-678	-6692	21	19	111	655	50099	655	79493078
109	708	3925	-645	-674	-6695	21	19	111	656	50199	656	79493078
124	688	3937	-646	-673	-6704	17	17	109	657	50252	657	79493081
124	702	3941	-648	-681	-6711	17	17	109	658	50352	658	79493082
111	702	3948	-645	-676	-6708	19	17	107	659	50405	659	79493084
131	698	3951	-649	-671	-6686	19	17	107	660	50505	660	79493089
118	687	3943	-652	-676	-6702	24	14	114	661	50558	661	79493090
117	704	3945	-651	-673	-6681	24	14	114	662	50658	662	79493124
131	698	3967	-647	-676	-6679	25	9	117	663	50711	663	79493125
117	704	3929	-650	-675	-6675	25	9	117	664	50811	664	79493126
140	692	3950	-649	-677	-6690	22	18	114	665	50865	665	79493128
120	702	3969	-641	-679	-6676	22	18	114	666	50965	666	79493128
137	702	3927	-643	-678	-6692	19	17	115	667	51018	667	79493131
131	694	3940	-643	-677	-6691	19	17	115	668	51118	668	79493132
137	690	3937	-643	-683	-6677	15	23	113	669	51171	669	79493134
111	703	3910	-644	-680	-6673	15	23	113	670	51271	670	79493135
118	705	3947	-647	-678	-6669	24	22	120	671	51324	671	79493136
109	705	3951	-650	-678	-6662	24	22	120	672	51424	672	79493172
109	682	3947	-652	-678	-6684	23	19	121	673	51477	673	79493173
140	697	3953	-644	-676	-6695	23	19	121	674	51578	674	79493175
133	694	3962	-645	-672	-6665	28	30	122	675	51630	675	79493175
134	702	3940	-647	-678	-6658	28	30	122	676	51731	676	79493177
147	680	3956	-644	-676	-6665	25	19	117	677	51783	677	79493179
155	701	3929	-643	-676	-6700	25	19	117	678	51884	678	79493180
126	702	3952	-643	-677	-6678	28	22	114	679	51937	679	79493183
144	710	3950	-646	-682	-6678	28	22	114	680	52037	680	79493183
140	687	3942	-649	-680	-6687	31	23	127	681	52090	681	79493211
125	683	3939	-649	-679	-6701	31	23	127	682	52190	682	79493212
133	692	3957	-647	-673	-6666	32	22	124	683	52243	683	79493213
120	699	3935	-650	-674	-6685	32	22	124	684	52344	684	79493216
116	682	3928	-651	-675	-6690	33	25	125	685	52397	685	79493217
128	692	3943	-646	-678	-6684	33	25	125	686	52498	686	79493218
124	685	3933	-645	-676	-6705	30	26	126	687	52550	687	79493221
135	686	3945	-643	-676	-6732	30	26	126	688	52651	688	79493222
136	690	3969	-647	-682	-6670	32	18	126	689	52704	689	79493256
135	705	3947	-643	-682	-6681	32	18	126	690	52804	690	79493257
150	707	3930	-640	-675	-6699	35	23	137	691	52857	691	79493258
134	712	3934	-649	-682	-6699	35	23	137	692	52958	692	79493260
149	700	3945	-653	-682	-6671	31	31	127	693	53011	693	79493260
179	687	3952	-650	-672	-6676	31	31	127	694	53111	694	79493263
127	688	3913	-648	-674	-6690	32	26	134	695	53164	695	79493264
126	678	3936	-650	-674	-6688	32	26	134	696	53265	696	79493266
124	675	3928	-650	-673	-6663	39	19	129	697	53318	697	79493267
148	690	3922	-647	-674	-6680	39	19	129	698	53418	698	79493268
131	687	3951	-641	-676	-6674	37	23	139	699	53471	699	79493304
129	704	3959	-644	-679	-6667	37	23	139	700	53571	700	79493305
151	704	3951	-645	-682	-6689	41	21	137	701	53624	701	79493307
142	693	3937	-644	-682	-6678	41	21	137	702	53724	702	79493308
140	694	3966	-646	-682	-6676	37	25	135	703	53777	703	79493319
139	690	3942	-651	-677	-6701	37	25	135	704	53877	704	79493337
134	688	3930	-653	-673	-6686	39	21	135	705	53930	705	79493350
133	673	3930	-650	-675	-6661	39	21	135	706	54030	706	79493351
137	676	3922	-647	-677	-6660	45	27	137	707	54083	707	79493351
148	702	3960	-646	-673	-6681	45	27	137	708	54184	708	79493354
137	682	3956	-646	-674	-6686	45	19	147	709	54236	709	79493355
144	696	3945	-647	-677	-6682	45	19	147	710	54337	710	79493355
147	678	3946	-641	-674	-6694	48	24	142	711	54390	711	79493356
154	701	3958	-643	-677	-6679	48	24	142	712	54490	712	79493356
139	680	3955	-646	-679	-6679	45	29	139	713	54543	713	79493358
138	687	3925	-648	-677	-6663	45	29	139	714	54643	714	79493360
142	682	3945	-646	-672	-6674	46	26	138	715	54696	715	79493360
160	681	3955	-648	-676	-6691	46	26	138	716	54796	716	79493365
153	701	3932	-650	-674	-6672	51	21	145	717	54849	717	79493365
159	679	3924	-647	-673	-6670	51	21	145	718	54949	718	79493371
136	682	3942	-648	-674	-6680	58	22	150	719	55002	719	79493403
147	692	3961	-643	-673	-6679	58	22	150	720	55102	720	79493404
151	701	3962	-641	-675	-6676	58	24	152	721	55155	721	79493407
142	701	3928	-639	-678	-6674	58	24	152	722	55255	722	79493407
160	690	3957	-642	-683	-6702	49	23	151	723	55308	723	79493409
166	685	3941	-649	-679	-6682	49	23	151	724	55408	724	79493411
145	672	3961	-649	-675	-6680	59	15	149	725	55461	725	79493411
141	685	3960	-649	-677	-6681	59	15	149	726	55561	726	79493415
156	690	3938	-648	-678	-6660	57	19	151	727	55614	727	79493416
168	685	3951	-645	-674	-6653	57	19	151	728	55714	728	79493417
134	688	3941	-646	-672	-6676	58	16	152	729	55767	729	79493450
162	695	3944	-647	-676	-6696	58	16	152	730	55867	730	79493451
157	690	3952	-646	-680	-6661	67	15	155	731	55920	731	79493454
155	716	3928	-643	-675	-6664	67	15	155	732	56020	732	79493455
160	703	3944	-645	-679	-6695	62	22	154	733	56073	733	79493457
138	679	3937	-645	-676	-6696	62	22	154	734	56173	734	79493458
157	706	3969	-649	-676	-6662	67	17	151	735	56226	735	79493460
148	673	3962	-651	-676	-6700	67	17	151	736	56327	736	79493465
129	687	3940	-645	-681	-6687	69	15	155	737	56380	737	79493466
142	684	3942	-648	-674	-6679	69	15	155	738	56480	738	79493500
155	684	3942	-647	-671	-6675	65	7	161	739	56533	739	79493500
148	676	3960	-643	-674	-6689	65	7	161	740	56633	740	79493502
154	703	3973	-646	-677	-6701	71	7	161	741	56686	741	79493503
160	704	3961	-642	-673	-6692	71	7	161	742	56786	742	79493504
173	687	3939	-643	-676	-6697	71	11	157	743	56839	743	79493508
164	708	3954	-644	-678	-6680	71	11	157	744	56939	744	79493509
150	686	3965	-649	-676	-6686	69	7	155	745	56992	745	79493510
149	690	3933	-647	-679	-6698	69	7	155	746	57092	746	79493513
156	683	3924	-645	-675	-6682	72	4	160	747	57145	747	79493513
148	683	3938	-650	-675	-6688	72	4	160	748	57245	748	79493547
160	685	3945	-652	-680	-6706	77	3	157	749	57298	749	79493548
152	695	3949	-648	-673	-6699	77	3	157	750	57398	750	79493549
159	691	3963	-644	-679	-6701	75	3	161	751	57451	751	79493551
150	695	3930	-646	-676	-6671	75	3	161	752	57551	752	79493552
158	715	3954	-645	-673	-6677	72	2	158	753	57604	753	79493555
146	717	3940	-641	-676	-6703	72	2	158	754	57704	754	79493556
150	699	3956	-643	-680	-6677	77	-1	161	755	57757	755	79493557
172	695	3943	-646	-674	-6688	77	-1	161	756	57857	756	79493559
154	703	3958	-646	-679	-6694	78	-6	162	757	57910	757	79493560
161	700	3939	-647	-676	-6663	78	-6	162	758	58010	758	79493596
162	687	3956	-647	-671	-6678	75	-5	163	759	58063	759	79493596
147	703	3923	-647	-675	-6694	75	-5	163	760	58163	760	79493600
167	687	3941	-645	-673	-6686	79	-7	167	761	58216	761	79493600
168	695	3946	-644	-676	-6664	79	-7	167	762	58316	762	79493602
152	704	3935	-647	-678	-6672	77	-3	163	763	58369	763	79493604
161	696	3959	-643	-679	-6688	77	-3	163	764	58469	764	79493604
155	684	3959	-646	-682	-6686	84	-6	162	765	58522	765	79493608
164	713	3937	-646	-675	-6695	84	-6	162	766	58622	766	79493609
157	677	3946	-648	-676	-6712	77	-11	165	767	58675	767	79493612
169	704	3938	-647	-678	-6712	77	-11	165	768	58775	768	79493645
152	699	3942	-652	-676	-6691	81	-13	161	769	58828	769	79493646
165	711	3938	-649	-676	-6687	81	-13	161	770	58929	770	79493648
176	708	3916	-646	-674	-6702	79	-11	165	771	58981	771	79493649
162	701	3946	-645	-679	-6675	79	-11	165	772	59082	772	79493651
185	701	3953	-651	-675	-6666	77	-13	163	773	59135	773	79493652
158	699	3966	-647	-675	-6693	77	-13	163	774	59235	774	79493654
155	703	3956	-643	-681	-6680	84	-16	168	775	59288	775	79493657
187	709	3923	-643	-682	-6677	84	-16	168	776	59388	776	79493658
163	696	3959	-647	-683	-6680	81	-17	171	777	59441	777	79493661
163	695	3958	-646	-676	-6694	81	-17	171	778	59541	778	79493694
166	700	3955	-644	-679	-6680	87	-25	167	779	59594	779	79493694
164	717	3935	-652	-676	-6677	87	-25	167	780	59694	780	79493697
162	706	3950	-650	-679	-6705	80	-24	166	781	59747	781	79493698
173	696	3936	-648	-679	-6705	80	-24	166	782	59847	782	79493700
159	704	3921	-645	-671	-6712	78	-18	162	783	59900	783	79493701
150	707	3954	-649	-675	-6698	78	-18	162	784	60000	784	79493702
172	720	3961	-646	-678	-6707	78	-24	162	785	60053	785	79493709
139	722	3954	-643	-681	-6668	78	-24	162	786	60153	786	79493709
149	708	3935	-647	-678	-6701	80	-26	170	787	60206	787	79493711
176	706	3920	-647	-681	-6735	80	-26	170	788	60306	788	79493719
164	708	3956	-651	-683	-6698	81	-25	167	789	60359	789	79493720
163	704	3938	-649	-678	-6666	81	-25	167	790	60460	790	79493755
184	722	3946	-651	-674	-6690	82	-30	172	791	60512	791	79493756
178	726	3954	-653	-677	-6713	82	-30	172	792	60612	792	79493759
171	708	3936	-648	-674	-6691	78	-36	164	793	60665	793	79493760
180	719	3922	-647	-673	-6694	78	-36	164	794	60765	794	79493761
163	708	3934	-648	-677	-6695	80	-32	164	795	60818	795	79493763
185	719	3954	-646	-679	-6688	80	-32	164	796	60919	796	79493765
164	701	3965	-644	-678	-6677	77	-33	163	797	60972	797	79493766
169	717	3938	-649	-678	-6711	77	-33	163	798	61073	798	79493767
172	696	3942	-646	-681	-6699	83	-41	165	799	61126	799	79493770
187	727	3961	-648	-681	-6680	83	-41	165	800	61226	800	79493803
175	708	3916	-651	-683	-6691	78	-36	172	801	61279	801	79493804
177	702	3910	-654	-680	-6709	78	-36	172	802	61379	802	79493806
167	712	3943	-648	-678	-6696	81	-45	163	803	61432	803	79493807
151	720	3946	-648	-681	-6701	81	-45	163	804	61532	804	79493809
181	719	3941	-648	-679	-6721	81	-47	161	805	61585	805	79493810
151	707	3941	-647	-683	-6717	81	-47	161	806	61685	806	79493810
168	733	3960	-647	-680	-6667	77	-43	163	807	61738	807	79493817
157	719	3952	-645	-683	-6667	77	-43	163	808	61838	808	79493818
162	721	3952	-644	-681	-6710	76	-42	164	809	61891	809	79493820
194	725	3943	-645	-675	-6692	76	-42	164	810	61991	810	79493851
170	714	3937	-649	-678	-6691	85	-51	165	811	62044	811	79493854
154	727	3948	-652	-679	-6705	85	-51	165	812	62144	812	79493855
185	716	3950	-655	-678	-6708	73	-47	155	813	62197	813	79493856
165	722	3946	-655	-675	-6708	73	-47	155	814	62297	814	79493858
160	723	3936	-643	-672	-6714	74	-50	164	815	62350	815	79493859
171	713	3922	-647	-678	-6699	74	-50	164	816	62450	816	79493859
156	718	3937	-644	-674	-6698	73	-49	161	817	62503	817	79493866
169	720	3967	-646	-677	-6670	73	-49	161	818	62604	818	79493867
155	708	3925	-643	-680	-6701	79	-55	159	819	62657	819	79493869
151	727	3961	-644	-680	-6695	79	-55	159	820	62757	820	79493902
164	731	3970	-648	-679	-6673	68	-56	160	821	62810	821	79493903
151	708	3921	-653	-678	-6691	68	-56	160	822	62910	822	79493905
187	714	3954	-653	-682	-6695	74	-56	156	823	62963	823	79493906
182	722	3959	-649	-675	-6693	74	-56	156	824	63063	824	79493910
185	723	3953	-649	-678	-6676	72	-62	156	825	63116	825	79493912
178	723	3930	-648	-683	-6705	72	-62	156	826	63216	826	79493913
171	710	3915	-647	-676	-6695	72	-58	154	827	63269	827	79493917
156	745	3942	-645	-674	-6701	72	-58	154	828	63369	828	79493918
170	724	3959	-647	-682	-6694	73	-63	161	829	63422	829	79493926
145	730	3942	-647	-681	-6696	73	-63	161	830	63522	830	79493927
160	731	3945	-646	-677	-6688	67	-61	161	831	63575	831	79493930
168	726	3932	-643	-676	-6684	67	-61	161	832	63675	832	79493963
169	720	3946	-649	-676	-6708	67	-65	155	833	63728	833	79493963
167	742	3924	-652	-677	-6717	67	-65	155	834	63828	834	79493966
165	722	3944	-649	-673	-6684	67	-69	157	835	63881	835	79493967
174	728	3955	-647	-679	-6703	67	-69	157	836	63982	836	79493968
153	733	3935	-646	-677	-6708	61	-71	153	837	64034	837	79493970
167	737	3943	-643	-678	-6700	61	-71	153	838	64134	838	79493971
150	729	3947	-644	-678	-6675	67	-79	151	839	64187	839	79493974
148	747	3951	-645	-680	-6695	67	-79	151	840	64287	840	79493974
159	733	3935	-643	-681	-6681	59	-75	159	841	64340	841	79493978
165	731	3941	-643	-679	-6706	59	-75	159	842	64440	842	79494010
159	722	3923	-647	-681	-6711	56	-80	154	843	64493	843	79494010
169	728	3924	-649	-679	-6689	56	-80	154	844	64593	844	79494013
163	722	3941	-648	-673	-6683	54	-80	162	845	64646	845	79494013
173	725	3929	-649	-671	-6679	54	-80	162	846	64746	846	79494016
166	726	3949	-649	-677	-6689	49	-85	149	847	64799	847	79494018
162	728	3926	-649	-677	-6707	49	-85	149	848	64899	848	79494018
153	740	3940	-647	-681	-6669	54	-84	152	849	64952	849	79494025
148	729	3950	-649	-680	-6699	54	-84	152	850	65052	850	79494026
154	731	3941	-646	-677	-6712	47	-89	157	851	65105	851	79494028
156	724	3946	-642	-678	-6684	47	-89	157	852	65205	852	79494037
156	735	3934	-644	-678	-6690	41	-87	153	853	65258	853	79494037
156	740	3926	-649	-681	-6681	41	-87	153	854	65358	854	79494072
183	736	3920	-649	-677	-6703	45	-85	157	855	65411	855	79494073
159	732	3917	-648	-676	-6704	45	-85	157	856	65511	856	79494075
159	748	3950	-651	-677	-6685	36	-88	150	857	65564	857	79494077
145	742	3925	-651	-675	-6702	36	-88	150	858	65664	858	79494078
162	741	3935	-646	-674	-6710	37	-85	155	859	65717	859	79494079
140	730	3949	-646	-680	-6697	37	-85	155	860	65817	860	79494080
149	727	3949	-647	-682	-6695	31	-83	161	861	65870	861	79494084
156	728	3940	-648	-682	-6705	31	-83	161	862	65970	862	79494085
150	732	3925	-641	-681	-6681	28	-92	162	863	66023	863	79494088
151	737	3930	-644	-676	-6691	28	-92	162	864	66123	864	79494121
163	721	3934	-651	-678	-6684	31	-89	165	865	66176	865	79494123
148	714	3926	-651	-677	-6690	31	-89	165	866	66276	866	79494124
151	726	3976	-651	-674	-6671	27	-89	159	867	66329	867	79494125
151	727	3945	-648	-678	-6708	27	-89	159	868	66429	868	79494126
148	734	3916	-647	-676	-6681	24	-80	170	869	66482	869	79494128
146	741	3935	-646	-675	-6670	24	-80	170	870	66582	870	79494129
140	734	3927	-641	-680	-6684	23	-87	167	871	66635	871	79494132
141	731	3926	-645	-679	-6707	23	-87	167	872	66735	872	79494134
129	739	3966	-645	-678	-6686	4	-80	162	873	66788	873	79494136
137	729	3931	-644	-681	-6694	4	-80	162	874	66888	874	79494169
141	732	3944	-647	-686	-6690	26	-80	168	875	66941	875	79494169
151	740	3935	-649	-682	-6694	26	-80	168	876	67042	876	79494172
143	730	3943	-650	-679	-6691	15	-77	165	877	67094	877	79494173
158	729	3927	-648	-679	-6677	15	-77	165	878	67194	878	79494174
148	740	3938	-649	-671	-6709	10	-74	168	879	67247	879	79494176
151	743	3922	-650	-673	-6674	10	-74	168	880	67347	880	79494177
148	736	3950	-647	-676	-6680	6	-78	166	881	67400	881	79494183
144	736	3938	-643	-679	-6682	6	-78	166	882	67501	882	79494184
156	727	3992	-642	-680	-6671	-3	-67	163	883	67554	883	79494186
152	736	3930	-639	-683	-6657	-3	-67	163	884	67654	884	79494194
145	743	3970	-646	-681	-6675	24	-64	172	885	67707	885	79494199
161	726	3937	-652	-678	-6688	24	-64	172	886	67807	886	79494229
146	729	3953	-649	-677	-6685	2	-58	172	887	67860	887	79494231
151	743	3928	-650	-677	-6688	2	-58	172	888	67961	888	79494232
136	725	3956	-652	-673	-6693	14	-54	166	889	68013	889	79494233
152	718	3940	-647	-678	-6670	14	-54	166	890	68113	890	79494235
131	729	3950	-648	-675	-6701	6	-62	162	891	68166	891	79494236
126	729	3942	-644	-673	-6681	6	-62	162	892	68266	892	79494237
136	722	3954	-640	-673	-6692	1	-43	159	893	68319	893	79494241
119	742	3944	-641	-682	-6693	1	-43	159	894	68419	894	79494242
116	737	3954	-643	-680	-6686	9	-57	167	895	68472	895	79494245
140	733	3926	-646	-683	-6692	9	-57	167	896	68572	896	79494257
147	736	3959	-649	-683	-6668	0	-48	156	897	68625	897	79494257
139	738	3971	-650	-683	-6701	0	-48	156	898	68725	898	79494292
151	740	3969	-649	-676	-6698	8	-54	158	899	68778	899	79494293
150	751	3962	-648	-673	-6686	8	-54	158	900	68879	900	79494294
140	734	3970	-649	-673	-6680	13	-47	155	901	68931	901	79494295
132	728	3929	-649	-678	-6685	13	-47	155	902	69031	902	79494296
120	743	3946	-642	-675	-6703	2	-32	152	903	69084	903	79494299
124	733	3935	-644	-676	-6694	2	-32	152	904	69184	904	79494299
127	716	3946	-647	-683	-6696	14	-50	152	905	69237	905	79494301
145	736	3940	-641	-684	-6703	14	-50	152	906	69337	906	79494304
131	747	3968	-642	-682	-6701	6	-30	150	907	69390	907	79494305
134	745	3962	-641	-684	-6698	6	-30	150	908	69490	908	79494339
117	739	3951	-648	-681	-6693	4	-46	148	909	69543	909	79494340
142	727	3944	-651	-678	-6711	4	-46	148	910	69643	910	79494341
143	754	3940	-648	-675	-6686	4	-30	146	911	69696	911	79494342
143	737	3929	-647	-678	-6664	4	-30	146	912	69796	912	79494343
138	726	3918	-649	-676	-6721	-2	-24	140	913	69849	913	79494346
121	731	3946	-650	-676	-6692	-2	-24	140	914	69949	914	79494347
134	722	3949	-643	-676	-6683	3	-33	143	915	70002	915	79494348
126	745	3948	-641	-678	-6686	3	-33	143	916	70102	916	79494351
128	744	3944	-645	-675	-6699	-2	-22	136	917	70155	917	79494352
121	736	3953	-648	-684	-6694	-2	-22	136	918	70256	918	79494388
133	739	3932	-646	-681	-6697	-7	-27	139	919	70308	919	79494390
129	751	3941	-643	-679	-6674	-7	-27	139	920	70409	920	79494393
125	729	3937	-646	-677	-6691	3	-21	143	921	70461	921	79494394
143	724	3905	-656	-681	-6675	3	-21	143	922	70561	922	79494395
115	726	3931	-648	-675	-6699	-7	-21	135	923	70614	923	79494396
124	736	3957	-642	-673	-6721	-7	-21	135	924	70714	924	79494397
140	729	3951	-647	-674	-6687	-4	-22	136	925	70767	925	79494400
138	725	3942	-648	-680	-6701	-4	-22	136	926	70867	926	79494401
124	731	3944	-644	-676	-6692	-2	-18	138	927	70920	927	79494404
132	731	3954	-642	-680	-6692	-2	-18	138	928	71020	928	79494436
133	752	3952	-647	-683	-6696	-8	-20	132	929	71073	929	79494437
119	743	3936	-650	-679	-6700	-8	-20	132	930	71174	930	79494439
125	743	3952	-650	-674	-6693	-3	-11	137	931	71226	931	79494440
135	733	3915	-644	-677	-6690	-3	-11	137	932	71326	932	79494442
123	738	3951	-648	-678	-6673	2	-8	128	933	71379	933	79494443
126	733	3939	-650	-672	-6692	2	-8	128	934	71479	934	79494444
112	727	3943	-645	-678	-6688	-7	-13	123	935	71532	935	79494448
106	725	3929	-644	-674	-6703	-7	-13	123	936	71633	936	79494449
115	727	3956	-646	-677	-6688	-2	-6	128	937	71686	937	79494452
118	724	3949	-644	-681	-6688	-2	-6	128	938	71786	938	79494491
133	735	3975	-644	-680	-6697	-11	-9	125	939	71839	939	79494492
135	735	3935	-645	-681	-6676	-11	-9	125	940	71939	940	79494494
126	733	3925	-646	-677	-6689	-4	-2	122	941	71992	941	79494495
144	727	3936	-650	-674	-6684	-4	-2	122	942	72092	942	79494497
143	721	3929	-651	-674	-6683	-4	-2	120	943	72145	943	79494499
121	727	3946	-647	-677	-6691	-4	-2	120	944	72245	944	79494500
122	720	3937	-646	-676	-6675	0	-2	118	945	72298	945	79494502
111	725	3964	-646	-676	-6684	0	-2	118	946	72398	946	79494503
108	728	3943	-642	-676	-6686	3	7	113	947	72451	947	79494510
113	717	3965	-640	-676	-6691	3	7	113	948	72551	948	79494511
121	723	3944	-645	-681	-6687	-6	0	124	949	72604	949	79494511
123	704	3940	-647	-683	-6695	-6	0	124	950	72704	950	79494546
126	718	3954	-645	-679	-6708	-3	13	117	951	72757	951	79494546
109	737	3946	-648	-679	-6680	-3	13	117	952	72857	952	79494549
130	727	3944	-653	-682	-6656	-2	14	112	953	72910	953	79494550
126	723	3929	-651	-675	-6680	-2	14	112	954	73010	954	79494556
123	712	3938	-647	-672	-6690	-2	6	108	955	73063	955	79494557
119	730	3927	-648	-675	-6669	-2	6	108	956	73163	956	79494558
114	711	3974	-648	-668	-6688	-2	18	106	957	73216	957	79494561
115	721	3949	-643	-672	-6673	-2	18	106	958	73317	958	79494562
120	729	3931	-641	-678	-6683	0	12	112	959	73369	959	79494564
109	727	3963	-645	-681	-6671	0	12	112	960	73470	960	79494596
124	736	3985	-645	-681	-6684	8	16	110	961	73523	961	79494596
117	740	3956	-646	-679	-6701	8	16	110	962	73623	962	79494600
126	719	3956	-654	-681	-6675	3	11	109	963	73676	963	79494600
142	728	3941	-651	-679	-6677	3	11	109	964	73776	964	79494602
114	728	3960	-649	-673	-6703	3	15	109	965	73829	965	79494604
127	705	3927	-650	-677	-6690	3	15	109	966	73929	966	79494605
100	701	3915	-649	-678	-6687	6	20	110	967	73983	967	79494607
105	702	3933	-649	-677	-6694	6	20	110	968	74083	968	79494608
118	726	3958	-646	-670	-6704	7	9	101	969	74136	969	79494611
126	728	3963	-645	-677	-6678	7	9	101	970	74236	970	79494644
117	715	3988	-644	-680	-6687	2	24	102	971	74289	971	79494644
122	733	3953	-642	-675	-6698	2	24	102	972	74390	972	79494648
131	732	3949	-644	-678	-6696	11	15	103	973	74443	973	79494648
123	717	3938	-647	-680	-6694	11	15	103	974	74543	974	79494651
118	709	3950	-648	-675	-6691	11	21	101	975	74596	975	79494652
108	701	3947	-651	-670	-6673	11	21	101	976	74696	976	79494652
127	714	3924	-650	-677	-6695	8	18	100	977	74749	977	79494656
128	700	3968	-651	-679	-6696	8	18	100	978	74850	978	79494657
115	705	3947	-646	-675	-6696	9	17	97	979	74903	979	79494692
117	688	3941	-645	-675	-6696	9	17	97	980	75004	980	79494693
113	709	3946	-643	-679	-6691	18	18	102	981	75057	981	79494694
113	701	3948	-645	-679	-6675	18	18	102	982	75157	982	79494696
123	703	3952	-645	-680	-6676	10	22	100	983	75210	983	79494696
115	716	3928	-645	-680	-6685	10	22	100	984	75311	984	79494699
121	702	3958	-647	-680	-6697	14	12	100	985	75364	985	79494699
124	711	3929	-648	-676	-6700	14	12	100	986	75464	986	79494701
111	708	3947	-649	-677	-6684	21	15	101	987	75517	987	79494707
115	702	3945	-647	-676	-6666	21	15	101	988	75617	988	79494708
124	695	3935	-648	-673	-6694	19	17	109	989	75670	989	79494742
110	702	3962	-649	-678	-6689	19	17	109	990	75770	990	79494742
116	701	3972	-646	-677	-6681	21	19	103	991	75823	991	79494745
126	709	3947	-645	-679	-6708	21	19	103	992	75924	992	79494747
123	700	3957	-646	-679	-6700	17	13	103	993	75976	993	79494747
112	718	3937	-646	-683	-6676	17	13	103	994	76076	994	79494750
113	729	3937	-646	-679	-6692	16	14	102	995	76129	995	79494751
123	722	3951	-644	-673	-6681	16	14	102	996	76229	996	79494753
113	709	3955	-647	-672	-6695	20	16	100	997	76282	997	79494754
108	709	3935	-652	-676	-6680	20	16	100	998	76382	998	79494755
122	704	3934	-650	-667	-6705	21	13	107	999	76435	999	79494789
112	703	3937	-649	-677	-6694	21	13	107	1000	76535	1000	79494790
134	711	3951	-647	-679	-6688	21	17	113	1001	76588	1001	79494793
118	701	3971	-645	-683	-6663	21	17	113	1002	76688	1002	79494793
125	712	3947	-645	-680	-6683	16	18	104	1003	76741	1003	79494795
119	695	3943	-648	-682	-6685	16	18	104	1004	76841	1004	79494796
136	714	3947	-647	-679	-6683	25	17	107	1005	76894	1005	79494797
144	708	3954	-649	-677	-6680	25	17	107	1006	76994	1006	79494800
133	704	3986	-651	-677	-6693	22	14	104	1007	77047	1007	79494802
144	686	3929	-649	-679	-6695	22	14	104	1008	77148	1008	79494804
126	708	3940	-651	-675	-6674	22	16	112	1009	77201	1009	79494836
117	695	3947	-646	-672	-6689	22	16	112	1010	77301	1010	79494837
125	704	3937	-647	-675	-6684	24	16	110	1011	77354	1011	79494840
118	700	3948	-649	-675	-6683	24	16	110	1012	77455	1012	79494841
131	691	3949	-641	-673	-6699	22	18	112	1013	77508	1013	79494843
149	683	3944	-645	-685	-6713	22	18	112	1014	77609	1014	79494844
142	706	3949	-652	-681	-6663	19	19	113	1015	77661	1015	79494845
128	696	3943	-650	-681	-6673	19	19	113	1016	77762	1016	79494848
129	689	3942	-651	-677	-6699	22	18	112	1017	77815	1017	79494849
111	692	3945	-651	-678	-6687	22	18	112	1018	77915	1018	79494884
121	706	3957	-652	-676	-6666	29	15	123	1019	77968	1019	79494889
127	700	3952	-653	-671	-6688	29	15	123	1020	78069	1020	79494890
122	693	3939	-644	-673	-6707	27	19	117	1021	78122	1021	79494890
126	697	3978	-643	-674	-6662	27	19	117	1022	78222	1022	79494891
129	688	3956	-645	-679	-6691	23	21	111	1023	78275	1023	79494891
133	695	3928	-645	-680	-6684	23	21	111	1024	78376	1024	79494892
126	709	3956	-646	-685	-6668	23	19	117	1025	78428	1025	79494893
126	707	3956	-649	-679	-6691	23	19	117	1026	78529	1026	79494899
126	709	3920	-650	-678	-6680	28	20	122	1027	78582	1027	79494905
114	696	3954	-651	-674	-6679	28	20	122	1028	78682	1028	79494934
112	692	3948	-651	-678	-6682	29	21	123	1029	78735	1029	79494934
130	691	3969	-647	-675	-6687	29	21	123	1030	78836	1030	79494936
115	696	3937	-649	-673	-6684	27	19	123	1031	78889	1031	79494938
116	698	3937	-647	-680	-6697	27	19	123	1032	78990	1032	79494938
136	700	3945	-648	-679	-6670	27	23	117	1033	79043	1033	79494941
127	704	3960	-641	-675	-6709	27	23	117	1034	79143	1034	79494941
132	678	3964	-642	-682	-6691	29	23	121	1035	79196	1035	79494944
156	704	3959	-645	-678	-6711	29	23	121	1036	79296	1036	79494949
126	698	3944	-649	-681	-6668	25	23	131	1037	79350	1037	79494949
130	690	3967	-647	-679	-6689	25	23	131	1038	79450	1038	79494959
125	686	3952	-651	-676	-6675	34	22	128	1039	79503	1039	79494959
129	684	3926	-650	-673	-6681	34	22	128	1040	79603	1040	79494962
123	669	3973	-652	-676	-6730	36	18	132	1041	79656	1041	79494996
128	677	3965	-649	-680	-6680	36	18	132	1042	79756	1042	79494997
131	683	3929	-651	-675	-6686	32	28	130	1043	79809	1043	79494999
129	699	3972	-645	-675	-6707	32	28	130	1044	79909	1044	79495000
119	707	3958	-641	-680	-6697	39	25	131	1045	79962	1045	79495002
141	694	3955	-645	-682	-6677	39	25	131	1046	80062	1046	79495003
151	700	3956	-645	-681	-6682	30	24	132	1047	80115	1047	79495005
133	720	3932	-648	-681	-6663	30	24	132	1048	80215	1048	79495006
116	688	3941	-652	-683	-6689	34	28	136	1049	80268	1049	79495007
141	691	3944	-649	-678	-6685	34	28	136	1050	80368	1050	79495041
136	674	3946	-655	-678	-6689	41	21	137	1051	80421	1051	79495042
146	663	3914	-649	-675	-6683	41	21	137	1052	80521	1052	79495043
147	690	3924	-650	-673	-6674	35	25	131	1053	80574	1053	79495045
141	673	3933	-648	-672	-6710	35	25	131	1054	80675	1054	79495046
143	690	3955	-642	-677	-6706	47	31	141	1055	80728	1055	79495048
145	685	3969	-643	-677	-6686	47	31	141	1056	80828	1056	79495049
143	704	3959	-648	-673	-6674	40	28	138	1057	80881	1057	79495051
146	701	3976	-645	-677	-6671	40	28	138	1058	80981	1058	79495057
151	685	3944	-646	-683	-6683	42	18	146	1059	81034	1059	79495058
149	702	3946	-649	-680	-6670	42	18	146	1060	81134	1060	79495092
139	681	3941	-653	-675	-6672	42	22	144	1061	81187	1061	79495093
153	688	3936	-651	-676	-6662	42	22	144	1062	81287	1062	79495094
139	675	3936	-651	-674	-6697	44	28	148	1063	81340	1063	79495096
158	678	3925	-649	-671	-6688	44	28	148	1064	81440	1064	79495097
144	683	3939	-644	-675	-6687	47	21	143	1065	81493	1065	79495100
153	677	3946	-643	-678	-6687	47	21	143	1066	81593	1066	79495101
139	688	3941	-644	-678	-6686	49	29	143	1067	81646	1067	79495103
148	679	3930	-641	-678	-6686	49	29	143	1068	81746	1068	79495105
134	694	3912	-642	-680	-6688	49	19	147	1069	81799	1069	79495106
145	682	3929	-646	-678	-6675	49	19	147	1070	81899	1070	79495134
147	687	3939	-651	-684	-6669	50	16	152	1071	81952	1071	79495134
133	691	3953	-648	-678	-6674	50	16	152	1072	82053	1072	79495137
137	676	3934	-651	-677	-6660	52	24	144	1073	82105	1073	79495138
137	683	3948	-654	-676	-6673	52	24	144	1074	82206	1074	79495138
131	685	3950	-652	-675	-6704	54	18	146	1075	82258	1075	79495141
152	681	3954	-645	-676	-6696	54	18	146	1076	82359	1076	79495142
157	682	3934	-648	-680	-6700	56	20	154	1077	82412	1077	79495176
146	698	3917	-647	-679	-6691	56	20	154	1078	82512	1078	79495177
152	685	3949	-643	-673	-6690	52	16	150	1079	82565	1079	79495178
149	702	3928	-642	-679	-6663	52	16	150	1080	82666	1080	79495180
144	713	3956	-647	-680	-6676	59	23	149	1081	82719	1081	79495181
158	696	3943	-646	-679	-6669	59	23	149	1082	82820	1082	79495184
150	687	3959	-649	-683	-6695	63	19	151	1083	82872	1083	79495184
149	677	3922	-647	-678	-6703	63	19	151	1084	82973	1084	79495186
140	687	3937	-655	-674	-6680	59	15	151	1085	83025	1085	79495192
140	696	3951	-651	-672	-6699	59	15	151	1086	83126	1086	79495193
161	689	3952	-644	-676	-6685	66	18	158	1087	83179	1087	79495202
160	680	3944	-647	-677	-6646	66	18	158	1088	83279	1088	79495204
147	688	3947	-644	-681	-6653	69	9	155	1089	83332	1089	79495206
148	690	3944	-644	-681	-6674	69	9	155	1090	83433	1090	79495237
155	676	3953	-646	-679	-6671	65	15	159	1091	83486	1091	79495238
150	697	3956	-641	-676	-6671	65	15	159	1092	83586	1092	79495241
164	687	3940	-643	-677	-6686	68	12	152	1093	83639	1093	79495242
147	698	3957	-653	-674	-6687	68	12	152	1094	83739	1094	79495245
154	672	3940	-655	-669	-6669	69	13	153	1095	83792	1095	79495246
130	680	3944	-646	-672	-6694	69	13	153	1096	83893	1096	79495246
161	672	3941	-646	-676	-6677	67	13	157	1097	83946	1097	79495250
152	688	3960	-654	-679	-6687	67	13	157	1098	84046	1098	79495251
160	685	3970	-650	-679	-6692	67	7	163	1099	84099	1099	79495285
162	688	3934	-642	-675	-6677	67	7	163	1100	84199	1100	79495285
158	686	3949	-644	-680	-6678	74	6	162	1101	84252	1101	79495287
149	691	3937	-650	-678	-6688	74	6	162	1102	84352	1102	79495289
155	676	3936	-647	-682	-6694	74	6	162	1103	84405	1103	79495289
150	705	3967	-642	-686	-6683	74	6	162	1104	84505	1104	79495292
156	686	3955	-645	-680	-6670	71	7	165	1105	84558	1105	79495293
160	682	3942	-652	-678	-6665	71	7	165	1106	84659	1106	79495295
159	670	3939	-650	-680	-6689	75	3	165	1107	84712	1107	79495300
145	711	3961	-645	-672	-6678	75	3	165	1108	84812	1108	79495300
161	712	3979	-646	-673	-6686	79	-5	169	1109	84865	1109	79495335
152	696	3939	-648	-677	-6696	79	-5	169	1110	84965	1110	79495336
141	707	3955	-646	-676	-6683	73	-1	169	1111	85019	1111	79495337
172	701	3925	-644	-673	-6667	73	-1	169	1112	85119	1112	79495339
159	697	3957	-642	-676	-6689	82	0	162	1113	85172	1113	79495339
151	694	3913	-648	-680	-6700	82	0	162	1114	85272	1114	79495342
170	680	3955	-647	-678	-6667	77	-5	169	1115	85325	1115	79495343
175	708	3952	-647	-674	-6689	77	-5	169	1116	85425	1116	79495345
162	708	3954	-648	-679	-6688	81	-3	163	1117	85478	1117	79495350
172	693	3938	-647	-677	-6683	81	-3	163	1118	85578	1118	79495350
172	707	3948	-650	-671	-6670	79	-7	163	1119	85632	1119	79495360
162	695	3934	-645	-676	-6690	79	-7	163	1120	85732	1120	79495360
158	690	3924	-642	-678	-6704	79	-11	169	1121	85785	1121	79495362
163	691	3933	-644	-676	-6669	79	-11	169	1122	85886	1122	79495395
164	693	3938	-650	-674	-6680	76	-8	162	1123	85939	1123	79495397
158	708	3935	-648	-680	-6661	76	-8	162	1124	86040	1124	79495399
162	707	3932	-648	-680	-6681	80	-10	166	1125	86093	1125	79495400
147	712	3922	-650	-675	-6694	80	-10	166	1126	86193	1126	79495402
167	703	3913	-647	-672	-6681	77	-13	171	1127	86246	1127	79495403
176	710	3962	-645	-674	-6679	77	-13	171	1128	86347	1128	79495404
159	710	3930	-643	-668	-6683	80	-18	164	1129	86400	1129	79495408
168	707	3943	-647	-673	-6679	80	-18	164	1130	86500	1130	79495408
176	702	3946	-651	-671	-6717	83	-19	173	1131	86553	1131	79495442
159	704	3914	-652	-673	-6722	83	-19	173	1132	86654	1132	79495444
163	696	3946	-647	-677	-6697	79	-21	167	1133	86706	1133	79495445
167	711	3945	-648	-681	-6688	79	-21	167	1134	86806	1134	79495446
162	703	3912	-648	-681	-6681	76	-14	168	1135	86859	1135	79495447
158	710	3955	-649	-680	-6689	76	-14	168	1136	86960	1136	79495450
163	720	3946	-650	-676	-6692	76	-24	166	1137	87013	1137	79495450
172	709	3935	-646	-675	-6699	76	-24	166	1138	87113	1138	79495452
152	702	3936	-642	-669	-6698	84	-28	162	1139	87166	1139	79495459
167	702	3946	-646	-671	-6689	84	-28	162	1140	87266	1140	79495460
156	697	3968	-648	-677	-6688	83	-29	175	1141	87319	1141	79495469
165	700	3962	-643	-677	-6701	83	-29	175	1142	87419	1142	79495470
159	722	3971	-643	-678	-6677	84	-26	170	1143	87472	1143	79495472
134	698	3917	-649	-683	-6677	84	-26	170	1144	87573	1144	79495505
152	707	3939	-652	-681	-6706	75	-29	171	1145	87626	1145	79495506
175	714	3937	-648	-679	-6705	75	-29	171	1146	87727	1146	79495508
167	711	3932	-648	-679	-6703	77	-31	165	1147	87779	1147	79495509
165	699	3938	-648	-674	-6690	77	-31	165	1148	87880	1148	79495511
153	716	3914	-651	-676	-6718	84	-36	164	1149	87933	1149	79495512
158	718	3949	-646	-671	-6709	84	-36	164	1150	88034	1150	79495513
169	705	3957	-647	-676	-6704	79	-33	165	1151	88087	1151	79495517
166	705	3957	-645	-680	-6702	79	-33	165	1152	88188	1152	79495518
170	722	3923	-647	-680	-6702	78	-34	168	1153	88241	1153	79495521
141	715	3940	-645	-679	-6708	78	-34	168	1154	88341	1154	79495554
178	704	3938	-649	-684	-6695	83	-41	167	1155	88394	1155	79495554
173	706	3963	-650	-682	-6702	83	-41	167	1156	88494	1156	79495557
178	706	3920	-650	-681	-6696	76	-38	162	1157	88547	1157	79495558
175	718	3945	-655	-678	-6684	76	-38	162	1158	88648	1158	79495561
173	708	3924	-652	-674	-6693	81	-43	163	1159	88701	1159	79495561
173	708	3925	-650	-673	-6700	81	-43	163	1160	88801	1160	79495562
178	729	3961	-649	-674	-6716	76	-44	162	1161	88854	1161	79495566
166	716	3961	-648	-679	-6697	76	-44	162	1162	88955	1162	79495566
174	710	3961	-644	-675	-6691	69	-47	165	1163	89008	1163	79495602
159	728	3938	-641	-676	-6684	69	-47	165	1164	89108	1164	79495602
164	721	3976	-645	-677	-6691	78	-42	164	1165	89161	1165	79495604
145	720	3935	-643	-677	-6722	78	-42	164	1166	89262	1166	79495605
168	723	3925	-646	-679	-6684	77	-51	159	1167	89315	1167	79495605
172	739	3945	-651	-679	-6706	77	-51	159	1168	89416	1168	79495609
180	726	3934	-652	-676	-6701	81	-49	165	1169	89469	1169	79495609
174	720	3944	-653	-677	-6701	81	-49	165	1170	89570	1170	79495611
169	722	3938	-647	-673	-6657	73	-51	159	1171	89623	1171	79495616
179	732	3947	-645	-676	-6700	73	-51	159	1172	89723	1172	79495617
161	722	3945	-644	-674	-6688	77	-51	161	1173	89776	1173	79495652
165	714	3929	-647	-673	-6688	77	-51	161	1174	89877	1174	79495653
169	710	3927	-646	-675	-6691	75	-55	159	1175	89930	1175	79495654
165	721	3946	-642	-674	-6702	75	-55	159	1176	90031	1176	79495655
166	720	3948	-650	-678	-6698	72	-60	158	1177	90084	1177	79495656
170	723	3916	-652	-684	-6715	72	-60	158	1178	90184	1178	79495660
179	726	3943	-655	-684	-6706	71	-57	157	1179	90237	1179	79495662
174	706	3930	-652	-677	-6711	71	-57	157	1180	90337	1180	79495663
173	712	3944	-651	-674	-6676	68	-58	160	1181	90390	1181	79495667
162	707	3937	-652	-673	-6685	68	-58	160	1182	90491	1182	79495668
166	723	3928	-651	-670	-6709	71	-65	165	1183	90544	1183	79495677
176	723	3945	-647	-669	-6673	71	-65	165	1184	90644	1184	79495677
162	715	3933	-643	-675	-6672	68	-66	162	1185	90697	1185	79495680
160	711	3947	-640	-683	-6678	68	-66	162	1186	90797	1186	79495746
156	729	3928	-646	-681	-6686	62	-68	158	1187	90850	1187	79495749
171	732	3930	-647	-679	-6671	62	-68	158	1188	90951	1188	79495750
164	730	3940	-646	-678	-6692	62	-74	158	1189	91003	1189	79495750
161	732	3950	-650	-677	-6693	62	-74	158	1190	91103	1190	79495751
165	735	3932	-650	-678	-6694	62	-74	150	1191	91156	1191	79495751
169	729	3918	-648	-682	-6689	62	-74	150	1192	91256	1192	79495752
162	719	3923	-651	-676	-6701	60	-78	150	1193	91309	1193	79495753
180	709	3950	-651	-677	-6705	60	-78	150	1194	91410	1194	79495753
159	725	3945	-640	-677	-6675	57	-77	159	1195	91463	1195	79495771
138	738	3940	-641	-682	-6684	57	-77	159	1196	91564	1196	79495771
133	751	3929	-643	-675	-6694	54	-86	156	1197	91617	1197	79495773
161	736	3932	-643	-676	-6720	54	-86	156	1198	91718	1198	79495775
146	740	3920	-646	-680	-6681	55	-81	159	1199	91771	1199	79495775
182	738	3948	-648	-680	-6700	55	-81	159	1200	91872	1200	79495778
165	740	3956	-653	-681	-6695	50	-88	148	1201	91925	1201	79495778
148	738	3952	-653	-679	-6666	50	-88	148	1202	92025	1202	79495783
149	735	3955	-652	-675	-6705	49	-87	155	1203	92078	1203	79495785
153	729	3944	-653	-671	-6708	49	-87	155	1204	92178	1204	79495785
154	722	3957	-648	-675	-6714	47	-81	153	1205	92231	1205	79495788
136	726	3942	-644	-676	-6685	47	-81	153	1206	92331	1206	79495789
147	730	3933	-646	-676	-6687	44	-88	156	1207	92384	1207	79495791
135	723	3939	-644	-679	-6706	44	-88	156	1208	92484	1208	79495798
160	729	3952	-640	-679	-6675	44	-86	162	1209	92537	1209	79495799
154	727	3954	-644	-680	-6699	44	-86	162	1210	92638	1210	79495833
167	726	3937	-650	-679	-6693	41	-97	147	1211	92691	1211	79495834
158	719	3953	-653	-679	-6679	41	-97	147	1212	92792	1212	79495836
174	727	3924	-650	-678	-6678	43	-87	163	1213	92845	1213	79495837
161	724	3933	-650	-675	-6690	43	-87	163	1214	92946	1214	79495838
173	718	3930	-650	-674	-6677	42	-90	160	1215	92999	1215	79495841
156	722	3912	-650	-674	-6686	42	-90	160	1216	93100	1216	79495841
146	725	3951	-644	-678	-6694	27	-93	155	1217	93153	1217	79495843
151	745	3939	-643	-677	-6694	27	-93	155	1218	93254	1218	79495845
144	733	3938	-645	-678	-6681	29	-89	167	1219	93307	1219	79495846
153	741	3938	-639	-684	-6710	29	-89	167	1220	93408	1220	79495881
151	745	3938	-640	-680	-6701	22	-96	164	1221	93461	1221	79495882
149	756	3950	-650	-681	-6686	22	-96	164	1222	93562	1222	79495884
170	734	3983	-650	-678	-6686	23	-81	173	1223	93615	1223	79495885
145	736	3946	-653	-680	-6709	23	-81	173	1224	93716	1224	79495887
146	747	3942	-654	-676	-6711	21	-87	165	1225	93769	1225	79495888
150	734	3944	-647	-674	-6658	21	-87	165	1226	93869	1226	79495889
129	750	3929	-651	-675	-6671	-1	-81	165	1227	93922	1227	79495894
144	730	3934	-646	-675	-6687	-1	-81	165	1228	94022	1228	79495894
124	731	3942	-646	-676	-6711	19	-83	177	1229	94076	1229	79495897
131	742	3948	-643	-679	-6711	19	-83	177	1230	94176	1230	79495929
139	745	3955	-644	-684	-6701	9	-85	165	1231	94229	1231	79495930
152	741	3925	-649	-679	-6707	9	-85	165	1232	94330	1232	79495933
147	749	3958	-646	-680	-6702	15	-71	171	1233	94383	1233	79495934
163	747	3963	-645	-679	-6701	15	-71	171	1234	94484	1234	79495935
156	755	3945	-647	-677	-6674	14	-78	170	1235	94537	1235	79495937
157	749	3915	-652	-677	-6691	14	-78	170	1236	94638	1236	79495937
143	736	3945	-647	-675	-6679	-5	-65	161	1237	94691	1237	79495942
139	733	3954	-650	-675	-6674	-5	-65	161	1238	94791	1238	79495942
139	727	3915	-651	-672	-6711	10	-64	176	1239	94845	1239	79495945
139	736	3937	-645	-677	-6686	10	-64	176	1240	94946	1240	79495978
155	742	3946	-646	-678	-6672	3	-61	167	1241	94999	1241	79495979
131	736	3955	-649	-679	-6686	3	-61	167	1242	95100	1242	79495982
149	758	3936	-644	-679	-6683	9	-57	161	1243	95153	1243	79495983
162	757	3959	-645	-681	-6681	9	-57	161	1244	95254	1244	79495984
156	735	3928	-648	-681	-6696	4	-66	160	1245	95307	1245	79495986
138	739	3950	-650	-681	-6681	4	-66	160	1246	95408	1246	79495987
166	733	3921	-651	-674	-6678	-4	-44	156	1247	95461	1247	79495991
149	740	3908	-652	-677	-6678	-4	-44	156	1248	95561	1248	79495991
133	726	3942	-647	-678	-6688	16	-58	170	1249	95614	1249	79496026
134	738	3939	-648	-677	-6690	16	-58	170	1250	95715	1250	79496027
121	720	3962	-645	-675	-6680	6	-46	162	1251	95768	1251	79496027
131	732	3957	-645	-676	-6680	6	-46	162	1252	95869	1252	79496030
126	743	3941	-642	-683	-6691	9	-43	153	1253	95922	1253	79496031
124	751	3938	-646	-684	-6662	9	-43	153	1254	96022	1254	79496033
142	729	3929	-647	-680	-6712	12	-52	158	1255	96075	1255	79496034
136	739	3939	-647	-674	-6712	12	-52	158	1256	96175	1256	79496036
136	732	3939	-648	-673	-6693	2	-34	142	1257	96228	1257	79496042
132	727	3966	-652	-678	-6683	2	-34	142	1258	96328	1258	79496043
126	721	3970	-649	-681	-6701	13	-47	157	1259	96381	1259	79496052
133	714	3946	-648	-680	-6683	13	-47	157	1260	96482	1260	79496053
130	731	3951	-648	-678	-6692	-2	-34	146	1261	96535	1261	79496056
128	756	3929	-644	-681	-6697	-2	-34	146	1262	96635	1262	79496088
129	739	3967	-643	-679	-6697	2	-40	144	1263	96688	1263	79496089
135	733	3937	-644	-681	-6689	2	-40	144	1264	96788	1264	79496092
137	745	3958	-646	-683	-6705	2	-38	146	1265	96841	1265	79496092
133	731	3951	-649	-681	-6689	2	-38	146	1266	96941	1266	79496094
136	727	3946	-651	-679	-6702	1	-29	139	1267	96994	1267	79496096
135	736	3945	-649	-673	-6685	1	-29	139	1268	97094	1268	79496096
121	737	3937	-651	-674	-6686	2	-40	144	1269	97147	1269	79496100
124	725	3938	-648	-673	-6698	2	-40	144	1270	97248	1270	79496100
127	742	3942	-646	-677	-6677	-5	-19	143	1271	97301	1271	79496103
128	734	3928	-643	-681	-6694	-5	-19	143	1272	97401	1272	79496136
137	741	3973	-645	-678	-6677	2	-32	142	1273	97455	1273	79496136
138	732	3944	-648	-678	-6674	2	-32	142	1274	97556	1274	79496139
130	739	3951	-648	-683	-6666	1	-23	133	1275	97608	1275	79496140
124	728	3912	-649	-683	-6709	1	-23	133	1276	97709	1276	79496142
143	727	3916	-642	-679	-6707	-4	-18	132	1277	97762	1277	79496143
130	727	3949	-648	-679	-6670	-4	-18	132	1278	97863	1278	79496144
123	735	3943	-654	-672	-6676	-7	-21	133	1279	97916	1279	79496151
122	731	3921	-650	-669	-6694	-7	-21	133	1280	98017	1280	79496151
134	728	3939	-648	-673	-6699	-2	-18	128	1281	98070	1281	79496186
124	736	3937	-647	-681	-6663	-2	-18	128	1282	98170	1282	79496187
140	734	3956	-646	-680	-6704	-4	-24	134	1283	98223	1283	79496188
116	723	3951	-642	-677	-6678	-4	-24	134	1284	98324	1284	79496190
117	739	3951	-641	-679	-6697	-3	-7	131	1285	98377	1285	79496191
120	733	3966	-648	-679	-6686	-3	-7	131	1286	98477	1286	79496193
127	739	3963	-646	-680	-6688	-8	-6	124	1287	98531	1287	79496194
134	739	3938	-646	-680	-6683	-8	-6	124	1288	98631	1288	79496205
138	732	3937	-650	-679	-6679	-7	-11	129	1289	98684	1289	79496206
127	729	3928	-651	-677	-6702	-7	-11	129	1290	98784	1290	79496206
125	738	3931	-647	-677	-6680	-4	-2	128	1291	98837	1291	79496233
107	738	3951	-647	-680	-6681	-4	-2	128	1292	98938	1292	79496234
137	721	3929	-645	-673	-6672	3	-5	129	1293	98991	1293	79496236
125	716	3945	-642	-675	-6663	3	-5	129	1294	99091	1294	79496237
130	715	3970	-646	-679	-6693	-3	-1	119	1295	99145	1295	79496238
121	734	3944	-649	-678	-6696	-3	-1	119	1296	99245	1296	79496241
141	723	3954	-646	-674	-6697	0	2	122	1297	99298	1297	79496241
147	721	3944	-646	-677	-6692	0	2	122	1298	99398	1298	79496243
133	741	3960	-647	-679	-6663	-4	0	114	1299	99452	1299	79496248
121	725	3928	-650	-674	-6681	-4	0	114	1300	99552	1300	79496249
125	721	3944	-647	-669	-6693	-3	5	117	1301	99605	1301	79496283
110	728	3938	-647	-678	-6682	-3	5	117	1302	99705	1302	79496284
111	724	3958	-650	-678	-6660	-1	1	117	1303	99758	1303	79496285
120	713	3945	-650	-672	-6709	-1	1	117	1304	99858	1304	79496287
119	721	3951	-648	-679	-6683	-4	10	116	1305	99911	1305	79496287
119	729	3949	-645	-682	-6687	-4	10	116	1306	100011	1306	79496291
134	721	3945	-648	-679	-6662	-1	11	111	1307	100064	1307	79496292
124	734	3959	-645	-677	-6672	-1	11	111	1308	100164	1308	79496293
121	726	3945	-651	-677	-6693	6	14	106	1309	100217	1309	79496294
117	725	3962	-648	-674	-6670	6	14	106	1310	100318	1310	79496295
108	715	3938	-649	-673	-6681	5	15	117	1311	100371	1311	79496333
101	726	3923	-648	-674	-6675	5	15	117	1312	100471	1312	79496334
111	736	3945	-647	-680	-6687	-2	8	112	1313	100524	1313	79496336
121	718	3976	-647	-677	-6696	-2	8	112	1314	100624	1314	79496337
101	712	3960	-644	-674	-6696	3	19	103	1315	100677	1315	79496339
116	723	3926	-646	-677	-6697	3	19	103	1316	100777	1316	79496340
126	734	3960	-647	-679	-6674	3	15	109	1317	100830	1317	79496341
138	719	3956	-650	-680	-6694	3	15	109	1318	100930	1318	79496344
122	715	3933	-644	-679	-6683	7	21	105	1319	100983	1319	79496344
116	712	3944	-648	-675	-6686	7	21	105	1320	101084	1320	79496348
124	713	3952	-647	-674	-6666	9	19	107	1321	101136	1321	79496380
123	717	3963	-649	-677	-6713	9	19	107	1322	101236	1322	79496381
113	712	3938	-647	-674	-6681	3	13	107	1323	101289	1323	79496384
120	702	3940	-643	-672	-6669	3	13	107	1324	101390	1324	79496385
117	715	3945	-643	-673	-6677	14	20	94	1325	101443	1325	79496386
84	705	3948	-644	-678	-6692	14	20	94	1326	101543	1326	79496414
127	705	3974	-645	-678	-6658	12	22	98	1327	101596	1327	79496448
131	717	3946	-645	-678	-6700	12	22	98	1328	101696	1328	79496460
112	720	3962	-646	-684	-6672	14	14	104	1329	101749	1329	79496462
137	712	3931	-649	-682	-6683	14	14	104	1330	101850	1330	79496468
122	707	3903	-651	-675	-6685	10	22	104	1331	101902	1331	79496468
129	718	3936	-650	-676	-6690	10	22	104	1332	102002	1332	79496469
100	718	3929	-651	-678	-6670	9	17	97	1333	102055	1333	79496469
109	717	3919	-649	-673	-6685	9	17	97	1334	102155	1334	79496470
119	713	3964	-646	-672	-6676	16	30	96	1335	102208	1335	79496470
106	716	3917	-647	-678	-6680	16	30	96	1336	102308	1336	79496470
133	708	3929	-646	-677	-6691	19	13	103	1337	102361	1337	79496471
118	702	3958	-647	-679	-6700	19	13	103	1338	102461	1338	79496472
126	711	3923	-647	-678	-6701	24	10	104	1339	102514	1339	79496472
113	728	3934	-646	-682	-6683	24	10	104	1340	102614	1340	79496472
117	707	3939	-649	-682	-6667	19	19	97	1341	102667	1341	79496473
145	707	3937	-653	-678	-6676	19	19	97	1342	102767	1342	79496473
132	698	3934	-648	-674	-6678	21	17	99	1343	102820	1343	79496474
116	712	3923	-651	-678	-6668	21	17	99	1344	102920	1344	79496474
104	700	3937	-650	-674	-6680	13	15	101	1345	102973	1345	79496476
118	695	3937	-646	-673	-6701	13	15	101	1346	103074	1346	79496476
111	708	3955	-643	-677	-6695	17	17	103	1347	103127	1347	79496480
117	708	3950	-641	-677	-6691	17	17	103	1348	103227	1348	79496513
122	720	3943	-642	-679	-6703	21	15	107	1349	103280	1349	79496514
128	716	3947	-648	-685	-6689	21	15	107	1350	103380	1350	79496516
116	715	3939	-647	-685	-6671	22	12	102	1351	103433	1351	79496517
102	715	3944	-651	-678	-6689	22	12	102	1352	103533	1352	79496519
119	704	3952	-652	-683	-6690	15	19	105	1353	103586	1353	79496520
124	694	3944	-651	-673	-6661	15	19	105	1354	103686	1354	79496521
114	697	3964	-650	-675	-6669	19	17	99	1355	103739	1355	79496528
117	690	3940	-645	-676	-6703	19	17	99	1356	103840	1356	79496529
120	712	3957	-642	-678	-6691	14	18	110	1357	103892	1357	79496531
132	701	3974	-644	-680	-6682	14	18	110	1358	103993	1358	79496563
138	704	3937	-647	-679	-6697	20	10	108	1359	104046	1359	79496564
138	705	3980	-646	-679	-6680	20	10	108	1360	104146	1360	79496566
126	710	3955	-646	-680	-6672	22	16	108	1361	104199	1361	79496567
139	710	3961	-648	-678	-6667	22	16	108	1362	104299	1362	79496570
115	684	3968	-648	-680	-6683	23	17	105	1363	104352	1363	79496570
123	683	3940	-650	-678	-6687	23	17	105	1364	104453	1364	79496571
137	696	3932	-653	-675	-6697	24	14	108	1365	104505	1365	79496575
130	692	3943	-651	-672	-6700	24	14	108	1366	104606	1366	79496575
102	695	3957	-648	-672	-6708	20	10	116	1367	104659	1367	79496610
116	697	3955	-645	-673	-6678	20	10	116	1368	104759	1368	79496610
122	711	3942	-641	-672	-6675	29	21	113	1369	104812	1369	79496612
111	702	3942	-646	-678	-6686	29	21	113	1370	104913	1370	79496614
122	685	3961	-646	-682	-6669	17	11	111	1371	104966	1371	79496614
130	705	3951	-647	-679	-6662	17	11	111	1372	105066	1372	79496617
142	700	3955	-647	-677	-6692	22	12	112	1373	105119	1373	79496617
123	687	3966	-653	-681	-6695	22	12	112	1374	105220	1374	79496619
126	686	3940	-652	-677	-6661	22	16	112	1375	105273	1375	79496624
133	685	3933	-650	-674	-6671	22	16	112	1376	105373	1376	79496625
131	684	3954	-649	-675	-6685	32	14	122	1377	105426	1377	79496659
128	687	3921	-650	-674	-6691	32	14	122	1378	105527	1378	79496660
113	689	3936	-647	-680	-6664	25	17	123	1379	105579	1379	79496663
123	690	3936	-640	-677	-6689	25	17	123	1380	105679	1380	79496664
114	691	3951	-639	-678	-6696	23	21	117	1381	105732	1381	79496665
141	700	3953	-644	-676	-6664	23	21	117	1382	105833	1382	79496667
130	697	3947	-650	-674	-6672	22	22	120	1383	105886	1383	79496667
121	699	3967	-645	-680	-6679	22	22	120	1384	105986	1384	79496669
117	697	3928	-649	-677	-6677	22	22	118	1385	106039	1385	79496672
110	690	3934	-651	-675	-6698	22	22	118	1386	106139	1386	79496673
132	684	3947	-654	-670	-6688	33	15	127	1387	106192	1387	79496708
133	686	3925	-648	-674	-6715	33	15	127	1388	106293	1388	79496709
117	669	3930	-644	-672	-6690	29	21	131	1389	106345	1389	79496711
136	693	3951	-644	-674	-6681	29	21	131	1390	106446	1390	79496712
150	689	3947	-641	-679	-6684	28	28	130	1391	106498	1391	79496712
144	692	3934	-642	-677	-6693	28	28	130	1392	106599	1392	79496717
137	692	3952	-643	-676	-6690	30	24	124	1393	106651	1393	79496718
142	699	3942	-646	-678	-6710	30	24	124	1394	106751	1394	79496721
116	698	3943	-650	-679	-6701	30	26	130	1395	106804	1395	79496722
128	681	3941	-649	-677	-6673	30	26	130	1396	106904	1396	79496724
140	696	3931	-654	-680	-6676	26	20	130	1397	106957	1397	79496756
141	694	3938	-653	-677	-6706	26	20	130	1398	107057	1398	79496757
136	684	3918	-654	-674	-6709	31	25	133	1399	107110	1399	79496760
146	703	3948	-647	-674	-6664	31	25	133	1400	107210	1400	79496760
129	701	3945	-641	-670	-6700	29	19	127	1401	107263	1401	79496762
124	680	3936	-644	-671	-6708	29	19	127	1402	107363	1402	79496763
151	685	3961	-643	-679	-6690	34	24	128	1403	107416	1403	79496764
145	689	3973	-640	-677	-6678	34	24	128	1404	107517	1404	79496767
149	704	3943	-643	-677	-6681	41	17	133	1405	107569	1405	79496768
139	691	3936	-649	-678	-6673	41	17	133	1406	107669	1406	79496773
161	690	3965	-652	-676	-6665	31	23	141	1407	107722	1407	79496807
138	689	3948	-649	-674	-6699	31	23	141	1408	107822	1408	79496808
138	691	3926	-645	-672	-6702	37	21	137	1409	107875	1409	79496811
143	685	3952	-653	-679	-6678	37	21	137	1410	107976	1410	79496812
159	670	3953	-649	-674	-6666	36	22	140	1411	108028	1411	79496813
135	689	3926	-644	-677	-6716	36	22	140	1412	108128	1412	79496814
130	696	3944	-642	-677	-6674	41	27	141	1413	108181	1413	79496815
142	690	3931	-650	-679	-6693	41	27	141	1414	108281	1414	79496818
135	691	3964	-646	-679	-6684	46	22	148	1415	108334	1415	79496820
134	682	3950	-640	-680	-6667	46	22	148	1416	108434	1416	79496821
143	686	3952	-650	-677	-6670	41	27	139	1417	108487	1417	79496852
156	681	3925	-652	-680	-6707	41	27	139	1418	108587	1418	79496854
144	691	3940	-648	-679	-6702	47	29	145	1419	108640	1419	79496856
132	678	3932	-648	-676	-6675	47	29	145	1420	108740	1420	79496858
160	676	3942	-648	-673	-6677	53	21	141	1421	108793	1421	79496860
140	695	3932	-644	-676	-6681	53	21	141	1422	108893	1422	79496861
141	682	3956	-645	-677	-6682	45	31	141	1423	108946	1423	79496862
152	685	3954	-645	-675	-6673	45	31	141	1424	109046	1424	79496868
151	691	3944	-641	-678	-6693	53	19	149	1425	109099	1425	79496868
147	698	3919	-644	-681	-6680	53	19	149	1426	109199	1426	79496903
145	693	3950	-651	-678	-6685	57	17	157	1427	109252	1427	79496903
162	674	3934	-651	-678	-6676	57	17	157	1428	109352	1428	79496905
131	683	3966	-647	-678	-6675	56	20	150	1429	109405	1429	79496906
123	686	3953	-650	-676	-6676	56	20	150	1430	109505	1430	79496907
153	679	3949	-651	-671	-6668	53	19	143	1431	109558	1431	79496910
137	682	3949	-649	-673	-6708	53	19	143	1432	109659	1432	79496911
147	689	3966	-647	-669	-6711	54	24	150	1433	109712	1433	79496912
121	674	3949	-642	-675	-6683	54	24	150	1434	109812	1434	79496915
137	677	3962	-645	-676	-6667	60	16	154	1435	109865	1435	79496916
145	684	3931	-641	-675	-6700	60	16	154	1436	109965	1436	79496950
145	703	3938	-647	-679	-6677	61	15	157	1437	110018	1437	79496951
132	685	3945	-653	-679	-6643	61	15	157	1438	110119	1438	79496952
157	687	3940	-647	-680	-6690	61	21	155	1439	110171	1439	79496953
163	702	3896	-643	-676	-6682	61	21	155	1440	110271	1440	79496954
152	684	3952	-651	-668	-6670	57	15	153	1441	110324	1441	79496957
144	684	3929	-650	-670	-6668	57	15	153	1442	110424	1442	79496958
141	690	3931	-647	-673	-6665	69	15	155	1443	110477	1443	79496959
147	702	3945	-645	-676	-6686	69	15	155	1444	110577	1444	79496962
152	691	3952	-645	-674	-6666	70	12	158	1445	110630	1445	79496963
177	690	3928	-643	-677	-6682	70	12	158	1446	110730	1446	79496999
173	704	3935	-642	-680	-6696	63	13	153	1447	110783	1447	79497000
154	698	3949	-639	-677	-6687	63	13	153	1448	110883	1448	79497003
144	696	3959	-647	-678	-6664	68	8	160	1449	110936	1449	79497004
156	694	3955	-651	-680	-6694	68	8	160	1450	111036	1450	79497005
155	696	3923	-650	-672	-6678	74	8	158	1451	111089	1451	79497007
151	694	3926	-652	-672	-6647	74	8	158	1452	111189	1452	79497008
149	684	3940	-649	-672	-6696	72	8	160	1453	111242	1453	79497011
171	687	3908	-650	-670	-6703	72	8	160	1454	111342	1454	79497012
145	680	3969	-647	-672	-6687	71	3	165	1455	111395	1455	79497015
154	681	3946	-644	-676	-6678	71	3	165	1456	111495	1456	79497051
182	694	3936	-643	-682	-6694	70	4	160	1457	111548	1457	79497051
140	703	3934	-647	-676	-6652	70	4	160	1458	111649	1458	79497054
154	694	3962	-644	-679	-6668	77	-1	157	1459	111701	1459	79497055
170	689	3929	-643	-681	-6694	77	-1	157	1460	111802	1460	79497057
153	684	3953	-649	-675	-6668	78	2	162	1461	111854	1461	79497058
161	692	3932	-649	-676	-6675	78	2	162	1462	111955	1462	79497060
178	698	3947	-646	-678	-6682	73	-1	165	1463	112008	1463	79497062
151	692	3947	-648	-669	-6701	73	-1	165	1464	112108	1464	79497063
152	682	3916	-648	-672	-6682	76	2	162	1465	112161	1465	79497064
182	679	3963	-645	-677	-6659	76	2	162	1466	112262	1466	79497097
155	692	3942	-642	-677	-6684	75	-9	161	1467	112315	1467	79497098
154	690	3930	-642	-678	-6689	75	-9	161	1468	112415	1468	79497101
163	686	3927	-645	-676	-6676	80	-12	168	1469	112468	1469	79497102
176	695	3959	-647	-679	-6681	80	-12	168	1470	112568	1470	79497104
169	696	3932	-648	-681	-6695	83	-7	167	1471	112621	1471	79497105
167	694	3953	-649	-678	-6677	83	-7	167	1472	112722	1472	79497106
170	703	3968	-651	-677	-6687	76	-10	166	1473	112774	1473	79497109
153	704	3958	-651	-677	-6688	76	-10	166	1474	112874	1474	79497110
159	699	3921	-650	-674	-6684	78	-10	170	1475	112927	1475	79497143
165	700	3930	-645	-675	-6677	78	-10	170	1476	113028	1476	79497143
168	698	3957	-641	-674	-6700	84	-12	166	1477	113081	1477	79497144
152	714	3955	-644	-679	-6687	84	-12	166	1478	113181	1478	79497147
185	707	3939	-644	-678	-6695	79	-15	171	1479	113234	1479	79497147
163	704	3943	-642	-678	-6695	79	-15	171	1480	113334	1480	79497150
172	709	3952	-647	-681	-6699	75	-15	169	1481	113387	1481	79497151
156	691	3930	-649	-676	-6695	75	-15	169	1482	113487	1482	79497153
163	712	3944	-649	-675	-6689	80	-14	164	1483	113540	1483	79497160
158	704	3936	-650	-678	-6682	80	-14	164	1484	113640	1484	79497160
177	710	3949	-651	-674	-6695	91	-19	173	1485	113693	1485	79497169
160	690	3923	-650	-674	-6675	91	-19	173	1486	113794	1486	79497170
171	695	3930	-647	-673	-6696	79	-15	169	1487	113847	1487	79497173
175	716	3911	-644	-670	-6691	79	-15	169	1488	113947	1488	79497206
155	695	3933	-643	-674	-6692	81	-17	173	1489	114000	1489	79497207
151	697	3935	-646	-677	-6661	81	-17	173	1490	114100	1490	79497210
162	708	3964	-645	-678	-6717	79	-27	167	1491	114153	1491	79497210
145	713	3956	-646	-677	-6696	79	-27	167	1492	114253	1492	79497212
163	714	3941	-648	-679	-6681	83	-27	165	1493	114306	1493	79497214
161	713	3954	-653	-682	-6710	83	-27	165	1494	114407	1494	79497214
164	700	3947	-651	-680	-6696	78	-26	164	1495	114460	1495	79497218
154	721	3945	-647	-673	-6693	78	-26	164	1496	114561	1496	79497218
160	699	3935	-649	-674	-6677	83	-33	165	1497	114614	1497	79497222
146	699	3940	-651	-677	-6697	83	-33	165	1498	114715	1498	79497254
155	705	3941	-644	-674	-6704	74	-28	170	1499	114768	1499	79497255
172	706	3922	-640	-675	-6669	74	-28	170	1500	114869	1500	79497258
156	707	3958	-644	-684	-6674	78	-34	162	1501	114922	1501	79497259
174	707	3959	-646	-681	-6723	78	-34	162	1502	115022	1502	79497260
155	710	3957	-649	-679	-6683	80	-32	162	1503	115075	1503	79497262
183	716	3947	-650	-684	-6693	80	-32	162	1504	115176	1504	79497262
183	718	3949	-650	-684	-6705	79	-35	161	1505	115229	1505	79497267
183	708	3924	-651	-675	-6718	79	-35	161	1506	115330	1506	79497267
161	721	3943	-645	-675	-6684	79	-39	167	1507	115383	1507	79497303
172	719	3949	-647	-675	-6686	79	-39	167	1508	115484	1508	79497303
164	707	3943	-646	-676	-6714	86	-38	172	1509	115537	1509	79497304
169	734	3939	-644	-676	-6696	86	-38	172	1510	115638	1510	79497306
147	719	3938	-642	-678	-6692	78	-38	166	1511	115690	1511	79497307
165	724	3950	-646	-682	-6694	78	-38	166	1512	115791	1512	79497310
164	730	3947	-647	-680	-6686	84	-46	162	1513	115844	1513	79497310
170	737	3940	-648	-683	-6686	84	-46	162	1514	115944	1514	79497312
168	723	3943	-651	-676	-6719	77	-37	161	1515	115997	1515	79497318
172	716	3957	-653	-675	-6715	77	-37	161	1516	116097	1516	79497319
174	727	3948	-651	-675	-6708	81	-49	169	1517	116150	1517	79497353
173	732	3939	-650	-677	-6706	81	-49	169	1518	116250	1518	79497353
160	717	3936	-653	-677	-6684	78	-52	166	1519	116303	1519	79497355
162	712	3938	-647	-677	-6686	78	-52	166	1520	116404	1520	79497356
157	725	3946	-644	-680	-6685	75	-45	157	1521	116457	1521	79497357
148	723	3915	-645	-675	-6681	75	-45	157	1522	116557	1522	79497360
159	727	3960	-649	-673	-6694	77	-47	159	1523	116610	1523	79497361
163	725	3937	-644	-679	-6679	77	-47	159	1524	116710	1524	79497362
154	736	3956	-645	-679	-6682	79	-49	157	1525	116763	1525	79497368
170	734	3943	-650	-676	-6690	79	-49	157	1526	116863	1526	79497368
158	728	3949	-649	-676	-6713	74	-56	160	1527	116916	1527	79497378
173	743	3929	-648	-676	-6661	74	-56	160	1528	117016	1528	79497378
173	728	3953	-650	-674	-6689	76	-58	162	1529	117069	1529	79497381
161	712	3950	-646	-675	-6705	76	-58	162	1530	117170	1530	79497415
151	736	3942	-646	-674	-6707	72	-64	150	1531	117223	1531	79497416
158	720	3956	-645	-680	-6692	72	-64	150	1532	117324	1532	79497419
163	722	3967	-646	-680	-6710	75	-65	157	1533	117376	1533	79497419
148	731	3951	-646	-682	-6692	75	-65	157	1534	117476	1534	79497421
157	724	3919	-643	-683	-6718	68	-62	156	1535	117529	1535	79497423
149	729	3939	-650	-679	-6693	68	-62	156	1536	117629	1536	79497423
160	716	3942	-655	-681	-6690	69	-67	159	1537	117682	1537	79497426
165	727	3941	-650	-682	-6700	69	-67	159	1538	117782	1538	79497427
168	734	3947	-649	-680	-6697	72	-70	156	1539	117835	1539	79497429
166	728	3958	-651	-675	-6681	72	-70	156	1540	117936	1540	79497462
154	721	3946	-647	-675	-6674	66	-68	152	1541	117989	1541	79497463
163	724	3933	-648	-682	-6664	66	-68	152	1542	118089	1542	79497466
147	724	3970	-643	-676	-6681	67	-67	155	1543	118142	1543	79497467
144	743	3948	-645	-676	-6714	67	-67	155	1544	118243	1544	79497469
160	729	3944	-644	-678	-6690	56	-76	152	1545	118296	1545	79497470
175	721	3942	-648	-679	-6707	56	-76	152	1546	118396	1546	79497471
144	710	3943	-647	-674	-6721	59	-75	151	1547	118449	1547	79497477
170	740	3939	-649	-672	-6688	59	-75	151	1548	118549	1548	79497477
162	735	3954	-651	-678	-6700	65	-85	155	1549	118602	1549	79497511
161	729	3945	-649	-676	-6716	65	-85	155	1550	118702	1550	79497512
174	737	3936	-653	-676	-6692	50	-82	148	1551	118755	1551	79497513
163	737	3944	-645	-678	-6702	50	-82	148	1552	118856	1552	79497515
144	732	3945	-647	-677	-6671	52	-84	158	1553	118909	1553	79497515
146	730	3962	-646	-676	-6695	52	-84	158	1554	119009	1554	79497519
148	746	3947	-644	-684	-6692	49	-81	149	1555	119062	1555	79497519
152	744	3961	-645	-686	-6688	49	-81	149	1556	119162	1556	79497521
159	731	3904	-645	-684	-6694	50	-84	152	1557	119216	1557	79497524
163	727	3926	-654	-679	-6692	50	-84	152	1558	119316	1558	79497524
164	729	3937	-649	-681	-6686	47	-85	159	1559	119369	1559	79497559
147	740	3911	-647	-679	-6687	47	-85	159	1560	119469	1560	79497559
158	739	3941	-651	-677	-6703	45	-83	159	1561	119522	1561	79497561
162	733	3952	-647	-677	-6666	45	-83	159	1562	119622	1562	79497563
163	717	3936	-643	-679	-6684	38	-88	158	1563	119675	1563	79497563
154	738	3949	-642	-674	-6715	38	-88	158	1564	119776	1564	79497566
147	757	3955	-645	-680	-6714	32	-90	152	1565	119829	1565	79497567
166	743	3955	-646	-682	-6702	32	-90	152	1566	119930	1566	79497569
159	746	3943	-645	-682	-6689	39	-87	155	1567	119982	1567	79497575
168	735	3933	-651	-679	-6712	39	-87	155	1568	120082	1568	79497576
166	744	3936	-651	-685	-6703	35	-93	163	1569	120135	1569	79497585
154	736	3931	-651	-678	-6676	35	-93	163	1570	120236	1570	79497586
157	742	3961	-651	-672	-6685	23	-87	165	1571	120289	1571	79497596
148	724	3940	-654	-676	-6708	23	-87	165	1572	120389	1572	79497597
155	740	3958	-645	-674	-6675	25	-89	169	1573	120442	1573	79497598
152	747	3955	-642	-675	-6686	25	-89	169	1574	120542	1574	79497631
155	738	3949	-647	-675	-6688	22	-96	158	1575	120595	1575	79497642
136	746	3971	-645	-680	-6688	22	-96	158	1576	120696	1576	79497646
145	742	3947	-641	-677	-6686	24	-76	168	1577	120749	1577	79497647
149	745	3916	-644	-685	-6698	24	-76	168	1578	120850	1578	79497648
148	740	3960	-653	-682	-6685	22	-86	162	1579	120903	1579	79497649
165	733	3933	-652	-680	-6700	22	-86	162	1580	121004	1580	79497649
130	726	3946	-649	-678	-6673	10	-80	160	1581	121057	1581	79497650
160	737	3928	-650	-673	-6695	10	-80	160	1582	121158	1582	79497650
150	750	3951	-652	-677	-6677	17	-79	173	1583	121211	1583	79497651
150	733	3945	-649	-677	-6663	17	-79	173	1584	121312	1584	79497691
142	743	3950	-644	-675	-6681	9	-83	169	1585	121365	1585	79497692
155	736	3926	-644	-678	-6689	9	-83	169	1586	121466	1586	79497695
145	734	3943	-643	-679	-6664	10	-66	172	1587	121519	1587	79497695
137	732	3949	-641	-675	-6693	10	-66	172	1588	121620	1588	79497697
144	740	3936	-643	-673	-6657	9	-77	161	1589	121673	1589	79497699
155	744	3960	-647	-677	-6690	9	-77	161	1590	121774	1590	79497700
156	730	3956	-650	-681	-6685	2	-62	162	1591	121826	1591	79497706
150	740	3940	-651	-680	-6715	2	-62	162	1592	121927	1592	79497707
158	741	3945	-648	-677	-6680	14	-64	160	1593	121979	1593	79497708
138	730	3937	-648	-674	-6671	14	-64	160	1594	122080	1594	79497710
137	735	3962	-654	-673	-6690	5	-57	167	1595	122133	1595	79497710
132	737	3941	-646	-682	-6695	5	-57	167	1596	122233	1596	79497719
131	743	3954	-643	-681	-6671	11	-61	171	1597	122286	1597	79497719
130	735	3943	-641	-681	-6702	11	-61	171	1598	122387	1598	79497723
147	726	3958	-643	-684	-6703	10	-62	164	1599	122440	1599	79497756
148	727	3964	-645	-687	-6716	10	-62	164	1600	122540	1600	79497756
140	755	3957	-646	-682	-6676	-3	-45	163	1601	122593	1601	79497762
148	737	3922	-651	-677	-6691	-3	-45	163	1602	122694	1602	79497763
144	742	3929	-652	-679	-6694	15	-53	159	1603	122746	1603	79497766
159	731	3931	-645	-675	-6679	15	-53	159	1604	122847	1604	79497766
138	737	3963	-647	-676	-6713	3	-37	159	1605	122900	1605	79497767
140	716	3941	-647	-673	-6709	3	-37	159	1606	123000	1606	79497770
127	736	3954	-642	-675	-6687	6	-46	150	1607	123053	1607	79497770
135	733	3931	-642	-678	-6679	6	-46	150	1608	123153	1608	79497778
131	737	3960	-642	-676	-6681	16	-44	164	1609	123206	1609	79497779
117	759	3946	-641	-680	-6699	16	-44	164	1610	123306	1610	79497782
137	732	3908	-643	-685	-6697	3	-35	155	1611	123359	1611	79497815
142	756	3950	-650	-684	-6685	3	-35	155	1612	123460	1612	79497816
125	727	3963	-649	-682	-6681	13	-47	159	1613	123512	1613	79497818
151	745	3915	-648	-674	-6681	13	-47	159	1614	123612	1614	79497819
122	730	3933	-650	-674	-6644	3	-33	147	1615	123666	1615	79497821
148	729	3960	-650	-674	-6683	3	-33	147	1616	123766	1616	79497825
130	729	3939	-647	-673	-6666	1	-37	145	1617	123819	1617	79497826
134	731	3944	-643	-671	-6679	1	-37	145	1618	123920	1618	79497831
143	731	3970	-643	-678	-6691	8	-38	148	1619	123973	1619	79497831
132	721	3937	-647	-681	-6710	8	-38	148	1620	124073	1620	79497833
135	733	3937	-645	-683	-6690	6	-26	148	1621	124126	1621	79497841
138	754	3919	-646	-678	-6676	6	-26	148	1622	124227	1622	79497842
138	743	3941	-651	-678	-6699	2	-36	150	1623	124280	1623	79497876
137	735	3935	-649	-682	-6691	2	-36	150	1624	124381	1624	79497876
131	749	3954	-650	-677	-6680	2	-18	146	1625	124433	1625	79497878
122	738	3940	-650	-676	-6678	2	-18	146	1626	124534	1626	79497880
116	738	3929	-652	-677	-6712	-5	-27	143	1627	124587	1627	79497880
124	736	3950	-647	-682	-6680	-5	-27	143	1628	124687	1628	79497883
139	732	3936	-645	-677	-6685	-1	-25	133	1629	124740	1629	79497884
134	730	3943	-643	-678	-6693	-1	-25	133	1630	124840	1630	79497887
127	743	3949	-644	-675	-6708	1	-17	129	1631	124893	1631	79497887
121	731	3930	-644	-681	-6693	1	-17	129	1632	124993	1632	79497888
130	719	3950	-649	-684	-6697	3	-27	139	1633	125046	1633	79497924
130	737	3938	-649	-681	-6689	3	-27	139	1634	125146	1634	79497924
134	740	3955	-645	-681	-6686	2	-8	132	1635	125199	1635	79497927
122	730	3935	-652	-678	-6693	2	-8	132	1636	125300	1636	79497928
131	727	3942	-654	-679	-6692	-1	-19	131	1637	125352	1637	79497930
137	726	3897	-647	-676	-6681	-1	-19	131	1638	125452	1638	79497931
129	738	3951	-650	-676	-6686	-11	-13	127	1639	125505	1639	79497932
134	741	3941	-650	-680	-6683	-11	-13	127	1640	125606	1640	79497935
129	727	3935	-641	-676	-6704	-5	-13	131	1641	125659	1641	79497936
118	736	3927	-643	-678	-6691	-5	-13	131	1642	125759	1642	79497949
137	727	3952	-647	-681	-6662	-2	-16	130	1643	125812	1643	79497950
136	726	3933	-643	-681	-6695	-2	-16	130	1644	125913	1644	79497950
135	745	3947	-643	-680	-6693	-4	-4	128	1645	125966	1645	79497985
125	731	3932	-648	-675	-6681	-4	-4	128	1646	126066	1646	79497986
123	717	3940	-651	-671	-6693	-3	-7	129	1647	126119	1647	79497987
113	720	3971	-648	-674	-6700	-3	-7	129	1648	126220	1648	79497989
113	731	3951	-643	-678	-6671	-2	0	122	1649	126272	1649	79497996
119	740	3944	-647	-674	-6688	-2	0	122	1650	126373	1650	79498005
104	722	3960	-647	-679	-6695	-4	-2	124	1651	126425	1651	79498010
117	740	3919	-640	-682	-6682	-4	-2	124	1652	126526	1652	79498012
126	742	3971	-646	-681	-6685	-3	1	123	1653	126579	1653	79498016
107	729	3953	-647	-684	-6678	-3	1	123	1654	126679	1654	79498016
126	727	3947	-646	-683	-6679	0	8	120	1655	126732	1655	79498034
142	733	3941	-648	-676	-6684	0	8	120	1656	126832	1656	79498034
121	732	3971	-651	-677	-6697	0	4	124	1657	126885	1657	79498036
118	720	3938	-651	-676	-6683	0	4	124	1658	126985	1658	79498037
138	717	3937	-649	-679	-6680	2	12	112	1659	127038	1659	79498038
124	719	3952	-645	-678	-6674	2	12	112	1660	127139	1660	79498041
116	722	3931	-645	-678	-6713	1	15	109	1661	127192	1661	79498041
98	721	3945	-644	-675	-6669	1	15	109	1662	127293	1662	79498045
126	717	3961	-647	-681	-6676	-3	13	111	1663	127345	1663	79498045
110	725	3946	-649	-680	-6679	-3	13	111	1664	127445	1664	79498045
130	718	3930	-644	-678	-6683	5	13	115	1665	127498	1665	79498081
139	745	3925	-644	-676	-6673	5	13	115	1666	127598	1666	79498082
119	715	3945	-655	-677	-6681	-2	10	104	1667	127651	1667	79498085
115	712	3928	-655	-680	-6693	-2	10	104	1668	127751	1668	79498085
133	713	3928	-645	-677	-6680	8	20	104	1669	127804	1669	79498087
127	723	3930	-647	-672	-6680	8	20	104	1670	127905	1670	79498089
107	712	3974	-650	-674	-6680	5	17	105	1671	127957	1671	79498089
121	716	3957	-646	-674	-6683	5	17	105	1672	128057	1672	79498094
132	725	3935	-640	-675	-6657	9	13	109	1673	128110	1673	79498094
130	721	3950	-642	-676	-6659	9	13	109	1674	128210	1674	79498097
116	718	3946	-645	-680	-6669	10	14	108	1675	128263	1675	79498130
122	731	3928	-645	-678	-6656	10	14	108	1676	128363	1676	79498131
140	721	3931	-644	-681	-6661	9	11	109	1677	128416	1677	79498134
121	721	3947	-646	-678	-6698	9	11	109	1678	128516	1678	79498135
110	720	3958	-648	-676	-6693	9	25	99	1679	128569	1679	79498136
120	715	3962	-647	-674	-6685	9	25	99	1680	128669	1680	79498138
101	711	3942	-648	-672	-6694	3	17	95	1681	128722	1681	79498138
121	710	3931	-644	-675	-6694	3	17	95	1682	128822	1682	79498142
112	721	3929	-645	-679	-6685	15	15	105	1683	128875	1683	79498143
119	710	3961	-646	-676	-6680	15	15	105	1684	128975	1684	79498146
129	718	3966	-646	-677	-6672	15	15	101	1685	129028	1685	79498180
109	711	3950	-642	-678	-6689	15	15	101	1686	129128	1686	79498180
132	719	3981	-648	-673	-6690	11	15	103	1687	129181	1687	79498182
132	718	3957	-649	-676	-6672	11	15	103	1688	129282	1688	79498183
122	710	3955	-646	-678	-6692	21	27	101	1689	129335	1689	79498185
127	717	3929	-648	-673	-6692	21	27	101	1690	129435	1690	79498186
110	722	3976	-649	-675	-6664	13	15	103	1691	129488	1691	79498187
111	694	3944	-648	-674	-6703	13	15	103	1692	129588	1692	79498194
131	697	3914	-645	-674	-6690	17	17	103	1693	129641	1693	79498203
115	709	3927	-645	-677	-6697	17	17	103	1694	129742	1694	79498204
115	705	3941	-650	-681	-6667	20	14	106	1695	129794	1695	79498205
121	703	3934	-649	-682	-6688	20	14	106	1696	129894	1696	79498207
130	698	3932	-651	-684	-6669	16	16	102	1697	129947	1697	79498240
120	695	3934	-648	-679	-6674	16	16	102	1698	130048	1698	79498240
131	708	3951	-646	-678	-6694	19	21	103	1699	130101	1699	79498243
122	707	3943	-651	-673	-6670	19	21	103	1700	130201	1700	79498244
134	698	3943	-648	-672	-6672	19	17	103	1701	130254	1701	79498246
127	716	3966	-650	-679	-6667	19	17	103	1702	130354	1702	79498247
101	704	3935	-645	-679	-6689	14	18	98	1703	130407	1703	79498248
106	704	3945	-642	-675	-6682	14	18	98	1704	130508	1704	79498251
102	708	3940	-643	-679	-6685	22	16	106	1705	130561	1705	79498252
109	720	3944	-643	-684	-6691	22	16	106	1706	130661	1706	79498286
131	699	3961	-646	-681	-6698	17	11	109	1707	130714	1707	79498286
116	715	3934	-648	-683	-6687	17	11	109	1708	130814	1708	79498287
136	717	3935	-647	-679	-6681	21	15	109	1709	130867	1709	79498290
126	709	3957	-652	-677	-6688	21	15	109	1710	130968	1710	79498290
116	698	3953	-647	-671	-6670	19	15	105	1711	131021	1711	79498293
108	690	3938	-649	-672	-6664	19	15	105	1712	131121	1712	79498294
119	691	3961	-649	-678	-6684	20	22	106	1713	131174	1713	79498296
127	690	3962	-648	-676	-6712	20	22	106	1714	131274	1714	79498301
126	698	3950	-642	-680	-6667	26	12	114	1715	131327	1715	79498302
124	692	3956	-643	-680	-6694	26	12	114	1716	131427	1716	79498331
147	705	3947	-650	-680	-6691	26	12	112	1717	131480	1717	79498332
128	707	3933	-646	-680	-6686	26	12	112	1718	131581	1718	79498334
124	711	3969	-645	-677	-6657	22	24	110	1719	131634	1719	79498335
127	697	3915	-649	-679	-6706	22	24	110	1720	131734	1720	79498336
134	686	3951	-652	-676	-6665	23	17	113	1721	131787	1721	79498341
111	693	3936	-653	-674	-6686	23	17	113	1722	131887	1722	79498342
125	682	3935	-650	-675	-6691	25	21	111	1723	131940	1723	79498344
123	690	3946	-646	-676	-6708	25	21	111	1724	132040	1724	79498352
119	687	3955	-646	-675	-6679	28	14	114	1725	132093	1725	79498352
143	693	3953	-643	-677	-6663	28	14	114	1726	132193	1726	79498361
134	689	3960	-644	-682	-6673	23	19	115	1727	132247	1727	79498362
126	692	3959	-644	-686	-6705	23	19	115	1728	132347	1728	79498365
135	700	3987	-645	-683	-6670	20	12	118	1729	132400	1729	79498398
126	710	3950	-647	-682	-6674	20	12	118	1730	132501	1730	79498399
139	693	3935	-650	-675	-6677	19	17	119	1731	132553	1731	79498402
131	702	3941	-651	-673	-6673	19	17	119	1732	132654	1732	79498403
132	687	3944	-651	-673	-6688	21	19	119	1733	132707	1733	79498404
113	681	3939	-651	-676	-6700	21	19	119	1734	132807	1734	79498406
137	700	3966	-648	-675	-6683	21	25	121	1735	132860	1735	79498406
139	703	3931	-644	-672	-6680	21	25	121	1736	132960	1736	79498410
124	699	3954	-642	-678	-6672	30	16	118	1737	133013	1737	79498411
143	697	3956	-642	-678	-6699	30	16	118	1738	133114	1738	79498445
133	693	3948	-645	-679	-6684	31	19	127	1739	133166	1739	79498445
126	702	3988	-647	-679	-6667	31	19	127	1740	133267	1740	79498447
136	703	3943	-648	-677	-6684	25	23	121	1741	133320	1741	79498448
123	689	3942	-650	-677	-6714	25	23	121	1742	133420	1742	79498449
124	684	3962	-655	-671	-6663	30	20	126	1743	133473	1743	79498452
116	673	3951	-653	-672	-6688	30	20	126	1744	133573	1744	79498452
127	684	3940	-649	-671	-6660	26	24	122	1745	133626	1745	79498454
121	692	3950	-648	-675	-6684	26	24	122	1746	133726	1746	79498460
132	685	3973	-645	-676	-6683	30	24	126	1747	133779	1747	79498460
137	676	3955	-645	-680	-6711	30	24	126	1748	133879	1748	79498495
140	689	3981	-642	-672	-6679	34	22	132	1749	133932	1749	79498495
141	712	3926	-644	-675	-6663	34	22	132	1750	134032	1750	79498497
128	701	3948	-648	-676	-6698	35	31	133	1751	134085	1751	79498498
139	690	3933	-648	-675	-6695	35	31	133	1752	134185	1752	79498499
141	690	3955	-647	-675	-6698	28	24	132	1753	134238	1753	79498503
138	703	3921	-651	-679	-6683	28	24	132	1754	134339	1754	79498503
138	690	3932	-652	-674	-6687	35	25	133	1755	134392	1755	79498505
134	684	3929	-649	-675	-6703	35	25	133	1756	134493	1756	79498508
132	687	3913	-649	-676	-6676	40	18	132	1757	134545	1757	79498508
146	689	3948	-646	-672	-6675	40	18	132	1758	134646	1758	79498543
148	694	3962	-646	-679	-6703	41	21	139	1759	134699	1759	79498544
137	696	3953	-644	-676	-6679	41	21	139	1760	134799	1760	79498545
147	690	3945	-643	-680	-6662	40	22	134	1761	134852	1761	79498548
149	687	3946	-644	-679	-6695	40	22	134	1762	134952	1762	79498549
143	697	3965	-648	-677	-6698	41	23	131	1763	135005	1763	79498552
137	681	3944	-651	-681	-6672	41	23	131	1764	135106	1764	79498553
134	686	3948	-648	-675	-6698	36	28	136	1765	135158	1765	79498556
124	689	3924	-649	-672	-6682	36	28	136	1766	135259	1766	79498556
142	687	3947	-649	-672	-6666	42	24	138	1767	135312	1767	79498557
149	691	3932	-653	-676	-6690	42	24	138	1768	135412	1768	79498591
141	675	3973	-646	-678	-6679	45	19	145	1769	135465	1769	79498592
147	704	3958	-637	-673	-6661	45	19	145	1770	135565	1770	79498594
148	694	3940	-644	-680	-6659	47	23	141	1771	135618	1771	79498595
141	702	3945	-642	-682	-6692	47	23	141	1772	135718	1772	79498597
155	696	3953	-641	-680	-6684	46	24	140	1773	135771	1773	79498598
138	691	3944	-646	-680	-6669	46	24	140	1774	135871	1774	79498599
164	677	3956	-650	-682	-6691	44	24	142	1775	135924	1775	79498604
150	690	3956	-651	-680	-6687	44	24	142	1776	136025	1776	79498605
140	681	3937	-649	-676	-6673	48	24	142	1777	136078	1777	79498607
146	704	3959	-646	-676	-6664	48	24	142	1778	136179	1778	79498640
137	681	3956	-648	-673	-6683	49	23	145	1779	136232	1779	79498641
149	660	3933	-646	-674	-6695	49	23	145	1780	136332	1780	79498643
156	684	3951	-639	-677	-6694	52	26	148	1781	136385	1781	79498644
146	681	3925	-637	-679	-6694	52	26	148	1782	136485	1782	79498645
137	684	3931	-644	-676	-6694	54	22	148	1783	136538	1783	79498647
146	679	3923	-647	-682	-6682	54	22	148	1784	136638	1784	79498648
154	684	3950	-651	-683	-6669	57	17	147	1785	136691	1785	79498652
146	694	3941	-645	-679	-6681	57	17	147	1786	136791	1786	79498653
148	686	3929	-650	-674	-6675	58	22	152	1787	136844	1787	79498656
161	694	3954	-650	-675	-6636	58	22	152	1788	136944	1788	79498689
161	679	3977	-648	-673	-6695	59	23	157	1789	136997	1789	79498689
150	690	3958	-642	-675	-6691	59	23	157	1790	137097	1790	79498692
140	673	3936	-646	-674	-6665	60	14	156	1791	137150	1791	79498693
139	680	3971	-648	-677	-6669	60	14	156	1792	137250	1792	79498694
138	687	3957	-639	-675	-6698	64	12	148	1793	137303	1793	79498696
137	710	3949	-637	-676	-6665	64	12	148	1794	137403	1794	79498696
158	702	3956	-645	-683	-6647	61	15	149	1795	137456	1795	79498704
162	677	3933	-647	-683	-6680	61	15	149	1796	137556	1796	79498704
152	691	3938	-645	-677	-6691	65	13	157	1797	137609	1797	79498714
146	684	3935	-646	-673	-6701	65	13	157	1798	137709	1798	79498714
158	672	3979	-650	-670	-6694	63	17	161	1799	137762	1799	79498715
157	682	3928	-653	-672	-6700	63	17	161	1800	137862	1800	79498748
166	698	3948	-647	-674	-6684	70	6	160	1801	137915	1801	79498750
146	700	3924	-646	-678	-6671	70	6	160	1802	138016	1802	79498752
158	700	3936	-645	-677	-6710	72	6	156	1803	138068	1803	79498752
156	684	3932	-648	-674	-6688	72	6	156	1804	138168	1804	79498755
157	698	3934	-646	-677	-6677	67	7	155	1805	138221	1805	79498757
148	691	3954	-645	-680	-6666	67	7	155	1806	138321	1806	79498757
164	680	3937	-643	-676	-6668	72	10	156	1807	138374	1807	79498760
170	706	3946	-647	-675	-6688	72	10	156	1808	138474	1808	79498761
156	687	3926	-649	-676	-6662	72	0	160	1809	138527	1809	79498764
156	684	3930	-647	-681	-6673	72	0	160	1810	138627	1810	79498797
160	701	3958	-649	-672	-6688	72	2	164	1811	138680	1811	79498801
162	690	3967	-646	-667	-6679	72	2	164	1812	138781	1812	79498806
141	687	3964	-647	-675	-6685	79	-1	161	1813	138833	1813	79498808
187	701	3949	-646	-673	-6692	79	-1	161	1814	138934	1814	79498809
158	703	3936	-644	-681	-6667	72	0	160	1815	138986	1815	79498811
154	690	3934	-648	-681	-6673	72	0	160	1816	139087	1816	79498812
137	697	3947	-651	-675	-6676	74	2	156	1817	139140	1817	79498813
158	687	3932	-645	-674	-6683	74	2	156	1818	139240	1818	79498814
153	690	3966	-647	-676	-6679	77	-5	165	1819	139293	1819	79498815
177	691	3940	-654	-673	-6681	77	-5	165	1820	139394	1820	79498847
152	692	3938	-648	-673	-6693	79	-7	163	1821	139447	1821	79498847
158	707	3952	-649	-675	-6684	79	-7	163	1822	139548	1822	79498851
166	696	3947	-647	-678	-6667	80	-2	166	1823	139600	1823	79498851
164	715	3947	-646	-676	-6670	80	-2	166	1824	139700	1824	79498853
163	693	3936	-647	-674	-6679	81	-7	161	1825	139754	1825	79498854
158	690	3952	-646	-678	-6684	81	-7	161	1826	139854	1826	79498855
168	699	3961	-646	-677	-6685	79	-5	167	1827	139907	1827	79498859
158	708	3958	-648	-680	-6707	79	-5	167	1828	140008	1828	79498860
165	690	3951	-645	-677	-6687	78	-8	164	1829	140061	1829	79498894
160	698	3943	-646	-676	-6689	78	-8	164	1830	140161	1830	79498895
170	703	3918	-648	-679	-6707	85	-17	167	1831	140214	1831	79498895
170	697	3957	-648	-672	-6691	85	-17	167	1832	140314	1832	79498898
166	699	3954	-647	-675	-6694	84	-10	172	1833	140367	1833	79498898
156	703	3922	-647	-676	-6678	84	-10	172	1834	140467	1834	79498902
171	694	3942	-644	-675	-6689	84	-12	168	1835	140520	1835	79498903
174	702	3945	-645	-685	-6679	84	-12	168	1836	140621	1836	79498904
159	696	3964	-647	-682	-6696	83	-21	165	1837	140674	1837	79498911
155	691	3953	-644	-678	-6700	83	-21	165	1838	140774	1838	79498911
169	690	3948	-645	-678	-6714	78	-22	170	1839	140827	1839	79498945
158	701	3938	-648	-676	-6675	78	-22	170	1840	140927	1840	79498946
166	715	3945	-646	-675	-6697	81	-19	167	1841	140980	1841	79498948
165	715	3986	-646	-677	-6718	81	-19	167	1842	141081	1842	79498975
164	705	3962	-650	-676	-6696	80	-22	172	1843	141134	1843	79498975
156	702	3930	-646	-675	-6675	80	-22	172	1844	141234	1844	79498978
166	708	3957	-643	-674	-6701	80	-24	164	1845	141287	1845	79498978
158	711	3967	-644	-680	-6708	80	-24	164	1846	141387	1846	79498980
158	712	3942	-645	-680	-6684	77	-27	165	1847	141440	1847	79498981
155	707	3922	-647	-677	-6684	77	-27	165	1848	141541	1848	79498982
155	714	3957	-647	-681	-6706	81	-29	167	1849	141594	1849	79498985
164	712	3929	-646	-682	-6695	81	-29	167	1850	141694	1850	79498986
160	707	3926	-650	-681	-6681	78	-26	160	1851	141747	1851	79498988
160	709	3925	-650	-676	-6697	78	-26	160	1852	141848	1852	79498989
143	709	3946	-650	-675	-6694	76	-26	166	1853	141901	1853	79498990
161	704	3930	-643	-680	-6705	76	-26	166	1854	142001	1854	79498994
185	695	3945	-643	-676	-6695	86	-38	168	1855	142054	1855	79498995
163	717	3967	-641	-672	-6697	86	-38	168	1856	142154	1856	79498998
146	720	3952	-645	-681	-6704	96	-40	168	1857	142207	1857	79499031
157	706	3967	-643	-678	-6694	96	-40	168	1858	142307	1858	79499031
163	721	3946	-647	-679	-6706	81	-37	167	1859	142360	1859	79499034
144	718	3935	-650	-679	-6683	81	-37	167	1860	142461	1860	79499034
176	723	3942	-647	-678	-6693	83	-35	163	1861	142513	1861	79499038
197	718	3920	-649	-678	-6697	83	-35	163	1862	142614	1862	79499038
184	712	3929	-652	-673	-6692	78	-34	164	1863	142667	1863	79499039
152	711	3911	-649	-675	-6679	78	-34	164	1864	142767	1864	79499043
176	717	3935	-647	-676	-6674	78	-40	160	1865	142820	1865	79499044
171	723	3933	-644	-674	-6700	78	-40	160	1866	142920	1866	79499078
160	705	3927	-644	-676	-6698	85	-39	167	1867	142973	1867	79499079
168	731	3922	-645	-678	-6701	85	-39	167	1868	143073	1868	79499080
162	722	3946	-648	-680	-6687	73	-43	167	1869	143126	1869	79499082
168	720	3948	-648	-682	-6694	73	-43	167	1870	143227	1870	79499082
166	718	3956	-646	-681	-6691	79	-43	157	1871	143279	1871	79499085
169	726	3937	-649	-680	-6687	79	-43	157	1872	143379	1872	79499086
172	724	3952	-653	-676	-6708	80	-42	164	1873	143432	1873	79499087
164	719	3960	-649	-680	-6687	80	-42	164	1874	143532	1874	79499093
162	713	3963	-647	-673	-6708	79	-55	163	1875	143585	1875	79499093
168	719	3940	-646	-675	-6710	79	-55	163	1876	143685	1876	79499128
162	714	3924	-648	-675	-6700	78	-54	168	1877	143738	1877	79499128
171	727	3924	-645	-678	-6708	78	-54	168	1878	143838	1878	79499130
137	714	3930	-646	-679	-6706	75	-55	165	1879	143891	1879	79499131
160	728	3946	-648	-680	-6716	75	-55	165	1880	143992	1880	79499132
147	727	3978	-647	-682	-6687	77	-49	155	1881	144045	1881	79499135
164	724	3958	-648	-681	-6671	77	-49	155	1882	144145	1882	79499136
183	731	3923	-651	-678	-6697	72	-52	160	1883	144198	1883	79499137
170	728	3947	-650	-682	-6691	72	-52	160	1884	144298	1884	79499143
169	714	3925	-648	-677	-6678	76	-64	156	1885	144351	1885	79499144
165	723	3923	-650	-670	-6687	76	-64	156	1886	144452	1886	79499153
165	732	3924	-649	-676	-6701	70	-62	164	1887	144505	1887	79499153
152	715	3942	-646	-675	-6685	70	-62	164	1888	144605	1888	79499156
149	738	3941	-645	-679	-6693	70	-70	152	1889	144658	1889	79499189
163	721	3968	-643	-679	-6681	70	-70	152	1890	144758	1890	79499189
146	724	3937	-647	-682	-6694	67	-65	157	1891	144811	1891	79499192
178	720	3918	-647	-684	-6689	67	-65	157	1892	144912	1892	79499193
154	731	3944	-650	-677	-6706	69	-63	151	1893	144964	1893	79499196
