Accl X	Accl Y	Accl Z	Gyro X	Gyro Y	Gyro Z	Mag X	Mag Y	Mag Z	RPkt#	Rtime	LPkt#	Ltime
-627	4047	-256	-328	-9059	743	-318	70	76	0	0	0	76754384
-668	4088	-275	-307	-9063	727	-314	78	76	1	49	1	76754388
-662	4105	-312	-300	-9058	722	-314	78	76	2	145	2	76754389
-692	4091	-281	-320	-9057	739	-324	72	76	3	194	3	76754391
-645	4060	-263	-331	-9058	719	-324	72	76	4	290	4	76754409
-656	4044	-274	-327	-9055	735	-325	65	85	5	339	5	76754409
-631	4091	-268	-317	-9062	728	-325	65	85	6	435	6	76754412
-672	4082	-273	-310	-9062	720	-324	70	80	7	484	7	76754413
-657	4098	-301	-318	-9062	714	-324	70	80	8	580	8	76754416
-639	4066	-280	-325	-9061	731	-320	60	84	9	629	9	76754434
-664	4037	-282	-322	-9061	737	-320	60	84	10	725	10	76754434
-637	4059	-291	-314	-9051	741	-334	66	84	11	774	11	76754438
-669	4101	-290	-310	-9055	739	-334	66	84	12	871	12	76754438
-639	4087	-295	-331	-9055	716	-332	70	82	14	884	13	76754459
-628	4051	-262	-326	-9059	739	-336	60	90	15	933	14	76754459
-637	4048	-279	-313	-9053	730	-336	60	90	16	1029	15	76754462
-662	4090	-293	-301	-9054	717	-335	61	91	17	1078	16	76754463
-674	4093	-304	-315	-9055	723	-335	61	91	18	1175	17	76754465
-649	4093	-291	-331	-9055	764	-341	47	93	19	1223	18	76754484
-626	4056	-254	-334	-9051	741	-341	47	93	20	1319	19	76754484
-663	4073	-257	-324	-9060	724	-334	50	88	21	1368	20	76754488
-635	4087	-269	-304	-9058	707	-334	50	88	22	1464	21	76754488
-682	4091	-268	-308	-9057	723	-343	45	87	23	1513	22	76754508
-659	4077	-284	-319	-9058	745	-343	45	87	24	1609	23	76754509
-650	4071	-288	-326	-9056	728	-347	51	95	25	1658	24	76754511
-616	4078	-294	-323	-9057	743	-347	51	95	26	1754	25	76754512
-639	4058	-283	-316	-9054	748	-345	45	91	27	1803	26	76754513
-651	4070	-293	-313	-9056	722	-345	45	91	28	1899	27	76754534
-649	4095	-282	-319	-9053	739	-340	32	92	29	1948	28	76754534
-657	4085	-274	-322	-9059	747	-340	32	92	30	2044	29	76754536
-640	4066	-291	-324	-9055	743	-348	34	96	31	2093	30	76754537
-669	4069	-286	-316	-9055	719	-348	34	96	32	2189	31	76754538
-649	4057	-298	-310	-9057	701	-344	26	88	33	2238	32	76754559
-671	4073	-292	-314	-9056	711	-344	26	88	34	2334	33	76754560
-636	4078	-319	-322	-9053	749	-356	28	92	35	2383	34	76754561
-652	4075	-291	-327	-9052	745	-356	28	92	36	2479	35	76754567
-638	4073	-277	-322	-9053	747	-347	25	91	37	2528	36	76754567
-638	4069	-308	-317	-9056	711	-347	25	91	38	2624	37	76754584
-651	4071	-303	-313	-9050	706	-357	15	89	39	2673	38	76754584
-648	4081	-313	-310	-9053	728	-357	15	89	40	2769	39	76754586
-644	4098	-293	-318	-9052	730	-351	13	91	41	2818	40	76754588
-661	4090	-292	-329	-9054	732	-351	13	91	42	2914	41	76754589
-628	4052	-289	-323	-9055	713	-349	17	83	43	2963	42	76754609
-654	4072	-279	-323	-9053	721	-349	17	83	44	3059	43	76754609
-634	4080	-296	-314	-9061	722	-354	14	86	45	3108	44	76754611
-639	4084	-287	-314	-9059	721	-354	14	86	46	3204	45	76754612
-667	4059	-313	-322	-9054	731	-360	10	82	47	3253	46	76754613
-645	4082	-301	-315	-9052	727	-360	10	82	48	3349	47	76754634
-633	4083	-314	-320	-9049	739	-360	2	80	49	3398	48	76754634
-645	4079	-301	-321	-9055	741	-360	2	80	50	3494	49	76754637
-650	4070	-290	-320	-9054	745	-352	-4	80	51	3543	50	76754638
-663	4079	-291	-316	-9056	755	-352	-4	80	52	3639	51	76754640
-643	4093	-325	-316	-9055	758	-361	5	75	53	3688	52	76754659
-664	4082	-315	-314	-9053	743	-361	5	75	54	3784	53	76754659
-642	4065	-308	-321	-9054	727	-360	-10	72	55	3833	54	76754662
-666	4078	-299	-318	-9056	730	-360	-10	72	56	3929	55	76754664
-645	4067	-314	-319	-9053	705	-365	-3	63	57	3978	56	76754665
-657	4089	-281	-315	-9054	716	-365	-3	63	58	4074	57	76754684
-659	4083	-300	-320	-9050	716	-356	-14	74	59	4123	58	76754684
-649	4072	-305	-325	-9053	733	-356	-14	74	60	4219	59	76754687
-653	4062	-299	-319	-9061	745	-360	-10	70	61	4268	60	76754688
-661	4066	-310	-315	-9052	718	-360	-10	70	62	4364	61	76754690
-640	4079	-317	-311	-9057	718	-366	-10	60	63	4413	62	76754709
-641	4072	-305	-317	-9057	745	-366	-10	60	64	4509	63	76754709
-662	4079	-320	-320	-9052	732	-371	-9	63	65	4558	64	76754712
-658	4068	-302	-324	-9055	753	-371	-9	63	66	4654	65	76754713
-668	4067	-297	-324	-9053	718	-365	-11	57	67	4703	66	76754715
-649	4062	-294	-315	-9059	703	-365	-11	57	68	4799	67	76754734
-638	4065	-317	-313	-9061	717	-362	-24	60	69	4848	68	76754736
-654	4070	-326	-319	-9058	731	-362	-24	60	70	4944	69	76754737
-659	4074	-335	-319	-9055	751	-373	-19	55	71	4993	70	76754738
-639	4075	-332	-324	-9054	716	-373	-19	55	72	5089	71	76754740
-677	4067	-308	-321	-9054	708	-360	-20	52	73	5138	72	76754761
-644	4072	-338	-320	-9055	726	-360	-20	52	74	5234	73	76754762
-646	4083	-305	-321	-9055	741	-367	-17	53	75	5283	74	76754769
-684	4074	-308	-317	-9057	716	-367	-17	53	76	5379	75	76754769
-644	4070	-301	-317	-9056	722	-372	-14	46	77	5428	76	76754771
-658	4070	-314	-319	-9056	727	-372	-14	46	78	5524	77	76754786
-646	4083	-318	-317	-9057	722	-363	-21	45	79	5573	78	76754786
-656	4078	-329	-319	-9055	756	-363	-21	45	80	5669	79	76754790
-660	4101	-319	-325	-9053	729	-367	-25	49	81	5718	80	76754791
-659	4080	-313	-324	-9060	746	-367	-25	49	82	5814	81	76754794
-652	4061	-334	-318	-9056	761	-361	-21	39	83	5863	82	76754794
-662	4085	-344	-317	-9055	731	-361	-21	39	84	5959	83	76754810
-665	4068	-319	-316	-9057	731	-364	-26	34	85	6008	84	76754811
-655	4077	-329	-316	-9057	704	-364	-26	34	86	6104	85	76754812
-663	4059	-341	-317	-9056	718	-353	-21	39	87	6153	86	76754819
-656	4063	-324	-322	-9055	713	-353	-21	39	88	6249	87	76754819
-684	4070	-302	-325	-9054	732	-368	-28	32	89	6298	88	76754821
-642	4086	-307	-324	-9057	742	-368	-28	32	90	6394	89	76754834
-658	4083	-312	-318	-9057	761	-361	-27	29	91	6443	90	76754834
-657	4084	-301	-318	-9058	736	-361	-27	29	92	6539	91	76754842
-689	4073	-323	-314	-9058	749	-361	-33	21	93	6588	92	76754843
-665	4071	-342	-314	-9061	739	-361	-33	21	94	6684	93	76754858
-669	4068	-337	-317	-9059	711	-359	-27	27	95	6733	94	76754860
-684	4083	-320	-325	-9057	740	-359	-27	27	96	6829	95	76754860
-656	4092	-310	-324	-9056	731	-355	-21	15	97	6878	96	76754867
-675	4078	-331	-318	-9062	711	-355	-21	15	98	6974	97	76754868
-673	4074	-325	-316	-9059	718	-347	-27	19	99	7023	98	76754884
-671	4078	-335	-313	-9059	735	-347	-27	19	100	7119	99	76754885
-659	4082	-334	-316	-9063	753	-358	-28	18	101	7168	100	76754886
-685	4089	-331	-319	-9062	759	-358	-28	18	102	7264	101	76754893
-658	4082	-313	-322	-9058	736	-353	-25	3	103	7313	102	76754893
-680	4065	-309	-324	-9054	730	-353	-25	3	104	7409	103	76754909
-650	4067	-309	-322	-9055	732	-352	-28	8	105	7458	104	76754911
-669	4094	-304	-324	-9055	741	-352	-28	8	106	7554	105	76754911
-663	4082	-307	-320	-9061	748	-353	-19	3	107	7603	106	76754918
-661	4084	-342	-314	-9061	716	-353	-19	3	108	7699	107	76754919
-672	4062	-315	-316	-9061	724	-346	-30	2	109	7748	108	76754961
-668	4080	-332	-319	-9055	726	-346	-30	2	110	7845	109	76754961
-700	4065	-333	-321	-9060	744	-358	-24	0	111	7893	110	76754963
-680	4066	-319	-325	-9059	722	-358	-24	0	112	7989	111	76754964
-670	4069	-279	-324	-9058	735	-348	-18	-22	113	8038	112	76754965
-693	4068	-293	-321	-9063	744	-348	-18	-22	114	8134	113	76754968
-690	4082	-340	-318	-9067	746	-352	-16	-18	115	8183	114	76754969
-682	4069	-326	-318	-9064	754	-352	-16	-18	116	8279	115	76754970
-699	4070	-329	-317	-9061	727	-344	-18	-18	117	8328	116	76754985
-687	4079	-344	-316	-9054	726	-344	-18	-18	118	8424	117	76754986
-672	4079	-334	-324	-9054	762	-345	-7	-25	119	8473	118	76754989
-696	4077	-322	-323	-9059	731	-345	-7	-25	120	8569	119	76754990
-658	4077	-322	-318	-9057	769	-355	-15	-15	121	8618	120	76754992
-687	4078	-288	-318	-9059	747	-355	-15	-15	122	8714	121	76754993
-681	4076	-315	-316	-9056	689	-346	-12	-38	123	8763	122	76754994
-689	4074	-317	-314	-9057	740	-346	-12	-38	124	8859	123	76755010
-705	4093	-320	-319	-9058	733	-361	-5	-33	125	8908	124	76755011
-684	4079	-332	-324	-9062	722	-361	-5	-33	126	9004	125	76755013
-705	4074	-311	-325	-9059	723	-350	-2	-28	127	9053	126	76755018
-673	4068	-320	-324	-9055	715	-350	-2	-28	128	9149	127	76755019
-697	4063	-330	-318	-9060	719	-356	8	-50	129	9198	128	76755034
-686	4076	-295	-321	-9062	737	-356	8	-50	130	9294	129	76755034
-682	4075	-314	-316	-9062	713	-368	6	-36	131	9343	130	76755036
-693	4092	-322	-313	-9062	717	-368	6	-36	132	9439	131	76755043
-684	4077	-311	-315	-9062	733	-355	11	-49	133	9488	132	76755043
-692	4087	-325	-321	-9062	710	-355	11	-49	134	9584	133	76755059
-694	4071	-312	-324	-9058	763	-367	19	-51	135	9633	134	76755060
-694	4065	-302	-323	-9056	727	-367	19	-51	136	9729	135	76755061
-698	4070	-316	-323	-9055	724	-362	18	-38	137	9778	136	76755063
-701	4057	-304	-321	-9066	715	-362	18	-38	138	9874	137	76755063
-693	4087	-327	-316	-9061	708	-368	40	-56	139	9923	138	76755084
-702	4083	-333	-319	-9059	740	-368	40	-56	140	10019	139	76755085
-687	4065	-311	-320	-9056	738	-379	15	-33	141	10068	140	76755088
-679	4072	-290	-320	-9053	715	-379	15	-33	142	10164	141	76755088
-689	4068	-298	-325	-9052	728	-365	37	-27	143	10213	142	76755091
-689	4065	-307	-322	-9051	756	-365	37	-27	144	10309	143	76755109
-711	4055	-305	-320	-9057	736	-381	33	-31	145	10358	144	76755110
-700	4070	-316	-315	-9060	714	-381	33	-31	146	10454	145	76755113
-701	4076	-323	-316	-9054	709	-357	41	-17	147	10503	146	76755113
-687	4073	-324	-322	-9054	749	-357	41	-17	148	10599	147	76755116
-696	4072	-305	-324	-9052	742	-368	60	-40	149	10648	148	76755138
-683	4089	-303	-329	-9051	755	-368	60	-40	150	10744	149	76755139
-683	4078	-281	-330	-9060	730	-369	41	-11	151	10793	150	76755140
-678	4067	-302	-318	-9058	755	-369	41	-11	152	10889	151	76755140
-692	4077	-295	-310	-9061	749	-353	63	-13	153	10938	152	76755141
-716	4085	-298	-311	-9063	735	-353	63	-13	154	11034	153	76755159
-707	4084	-299	-316	-9059	736	-364	48	-24	155	11083	154	76755160
-715	4098	-318	-321	-9057	731	-364	48	-24	156	11179	155	76755163
-704	4083	-299	-321	-9058	738	-342	56	-10	157	11228	156	76755163
-691	4093	-299	-318	-9058	738	-342	56	-10	158	11325	157	76755166
-705	4092	-294	-319	-9058	721	-349	65	-15	159	11373	158	76755184
-717	4081	-282	-319	-9063	732	-349	65	-15	160	11469	159	76755185
-692	4069	-296	-318	-9063	739	-346	56	-12	161	11518	160	76755188
-691	4076	-316	-315	-9063	737	-346	56	-12	162	11614	161	76755190
-709	4072	-306	-318	-9064	709	-338	76	0	163	11663	162	76755192
-696	4074	-306	-317	-9060	719	-338	76	0	164	11759	163	76755210
-704	4065	-315	-321	-9062	744	-350	58	-14	165	11808	164	76755210
-680	4085	-290	-332	-9057	739	-350	58	-14	166	11904	165	76755213
-662	4082	-294	-328	-9056	731	-331	73	1	167	11953	166	76755214
-711	4079	-286	-320	-9059	722	-331	73	1	168	12049	167	76755236
-690	4078	-283	-312	-9066	711	-332	74	10	169	12098	168	76755237
-719	4090	-290	-310	-9067	737	-332	74	10	170	12194	169	76755239
-705	4080	-318	-317	-9064	716	-332	66	0	171	12243	170	76755240
-708	4090	-293	-322	-9061	740	-332	66	0	172	12339	171	76755241
-685	4065	-291	-330	-9062	747	-327	89	1	173	12388	172	76755259
-697	4055	-286	-325	-9060	742	-327	89	1	174	12484	173	76755260
-689	4065	-302	-318	-9063	715	-333	75	9	175	12533	174	76755261
-686	4076	-292	-318	-9064	720	-333	75	9	176	12629	175	76755263
-715	4091	-306	-319	-9070	739	-318	94	8	177	12678	176	76755264
-671	4067	-293	-317	-9069	700	-318	94	8	178	12774	177	76755285
-687	4064	-289	-315	-9068	690	-327	79	11	179	12823	178	76755286
-698	4067	-290	-315	-9069	714	-327	79	11	180	12919	179	76755288
-674	4096	-302	-322	-9064	727	-323	87	7	181	12968	180	76755289
-691	4088	-300	-325	-9068	740	-320	98	18	183	12982	181	76755310
-700	4055	-299	-318	-9070	716	-320	98	18	184	13078	182	76755312
-715	4059	-277	-308	-9070	711	-324	90	30	185	13127	183	76755312
-707	4072	-327	-310	-9075	734	-324	90	30	186	13223	184	76755314
-699	4080	-319	-318	-9071	742	-313	103	19	187	13272	185	76755315
-696	4078	-284	-332	-9073	729	-313	103	19	188	13368	186	76755335
-697	4061	-265	-337	-9067	731	-310	98	30	189	13417	187	76755335
-672	4073	-274	-326	-9066	714	-310	98	30	190	13513	188	76755337
-672	4070	-278	-317	-9074	735	-314	96	30	191	13562	189	76755338
-717	4089	-278	-319	-9075	738	-314	96	30	192	13658	190	76755339
-676	4092	-306	-313	-9077	742	-307	109	33	193	13707	191	76755359
-699	4082	-297	-319	-9076	731	-307	109	33	194	13803	192	76755360
-698	4066	-280	-320	-9067	720	-311	99	41	195	13852	193	76755363
-675	4059	-273	-315	-9073	725	-311	99	41	196	13948	194	76755363
-706	4080	-287	-316	-9070	714	-304	106	44	197	13997	195	76755365
-692	4086	-272	-322	-9074	735	-304	106	44	198	14093	196	76755384
-685	4080	-275	-321	-9074	727	-295	99	45	199	14142	197	76755384
-693	4062	-251	-320	-9075	730	-295	99	45	200	14238	198	76755387
-708	4068	-277	-317	-9077	745	-294	104	52	201	14287	199	76755388
-684	4070	-287	-316	-9075	732	-294	104	52	202	14383	200	76755390
-690	4077	-268	-318	-9077	736	-298	104	44	203	14432	201	76755409
-676	4088	-272	-325	-9073	724	-298	104	44	204	14528	202	76755410
-689	4079	-284	-328	-9072	728	-294	102	50	205	14577	203	76755412
-686	4082	-278	-320	-9073	726	-294	102	50	206	14673	204	76755413
-675	4080	-254	-314	-9074	731	-294	106	54	207	14722	205	76755415
-694	4068	-283	-316	-9074	732	-294	106	54	208	14818	206	76755434
-687	4068	-266	-318	-9075	714	-292	96	58	209	14867	207	76755434
-700	4084	-286	-319	-9073	758	-292	96	58	210	14963	208	76755437
-664	4092	-302	-324	-9070	744	-284	94	62	211	15012	209	76755438
-675	4079	-263	-327	-9069	724	-284	94	62	212	15108	210	76755440
-665	4075	-254	-333	-9071	728	-289	89	55	213	15157	211	76755459
-691	4076	-264	-322	-9072	727	-289	89	55	214	15253	212	76755460
-687	4061	-278	-316	-9076	707	-286	94	64	215	15302	213	76755463
-684	4096	-286	-313	-9076	727	-286	94	64	216	15398	214	76755465
-681	4086	-292	-321	-9078	742	-288	96	62	217	15447	215	76755466
-693	4080	-286	-325	-9072	740	-288	96	62	218	15543	216	76755484
-674	4040	-240	-320	-9071	724	-284	88	58	219	15592	217	76755484
-663	4047	-273	-317	-9071	729	-284	88	58	220	15688	218	76755488
-679	4085	-288	-315	-9073	717	-287	91	63	221	15737	219	76755488
-686	4090	-261	-322	-9077	727	-287	91	63	222	15833	220	76755495
-661	4087	-270	-327	-9074	740	-292	94	60	223	15882	221	76755496
-678	4068	-288	-321	-9077	720	-292	94	60	224	15978	222	76755509
-678	4081	-284	-315	-9075	707	-284	90	60	225	16027	223	76755510
-684	4082	-303	-314	-9074	707	-284	90	60	226	16123	224	76755511
-677	4085	-290	-321	-9071	723	-292	90	60	227	16172	225	76755520
-665	4084	-280	-336	-9068	734	-292	90	60	228	16268	226	76755521
-663	4055	-237	-332	-9069	738	-290	86	70	229	16317	227	76755523
-650	4059	-263	-319	-9071	745	-290	86	70	230	16413	228	76755534
-652	4064	-285	-308	-9073	729	-285	81	65	231	16462	229	76755534
-677	4083	-285	-308	-9070	734	-285	81	65	232	16558	230	76755599
-690	4088	-281	-320	-9068	757	-290	86	64	233	16607	231	76755599
-687	4079	-272	-332	-9068	725	-290	86	64	234	16703	232	76755601
-662	4073	-268	-330	-9065	723	-287	73	63	235	16752	233	76755603
-670	4059	-244	-323	-9065	716	-287	73	63	236	16848	234	76755604
-679	4090	-272	-311	-9065	723	-305	83	53	237	16897	235	76755607
-677	4097	-270	-317	-9072	738	-305	83	53	238	16993	236	76755607
-682	4081	-275	-322	-9071	744	-295	77	63	239	17042	237	76755608
-660	4073	-280	-324	-9068	761	-295	77	63	240	17138	238	76755624
-654	4076	-280	-321	-9067	733	-301	81	69	241	17187	239	76755624
-675	4069	-270	-317	-9064	721	-301	81	69	242	17284	240	76755627
-652	4089	-262	-319	-9062	712	-302	76	60	243	17332	241	76755628
-687	4092	-283	-324	-9064	720	-302	76	60	244	17428	242	76755630
-664	4087	-253	-327	-9065	736	-303	77	65	245	17477	243	76755631
-667	4075	-263	-324	-9068	740	-303	77	65	246	17573	244	76755632
-669	4060	-299	-312	-9067	713	-312	76	68	247	17622	245	76755648
-655	4093	-285	-313	-9069	721	-312	76	68	248	17718	246	76755650
-677	4071	-296	-319	-9064	737	-306	76	78	249	17767	247	76755652
-655	4083	-271	-327	-9065	743	-306	76	78	250	17863	248	76755653
-662	4070	-257	-327	-9060	746	-318	80	70	251	17912	249	76755654
-660	4074	-273	-318	-9068	720	-318	80	70	252	18008	250	76755656
-656	4080	-265	-314	-9065	726	-309	69	83	253	18057	251	76755657
-676	4084	-281	-313	-9058	706	-309	69	83	254	18153	252	76755673
-653	4078	-303	-318	-9062	733	-318	78	74	255	18202	253	76755674
-663	4062	-290	-324	-9059	732	-318	78	74	256	18298	254	76755676
-641	4063	-275	-327	-9057	733	-321	77	81	257	18347	255	76755677
-652	4069	-276	-319	-9058	735	-321	77	81	258	18443	256	76755678
-673	4078	-261	-321	-9056	724	-319	75	77	259	18492	257	76755681
-652	4097	-268	-318	-9059	743	-319	75	77	260	18588	258	76755681
-667	4079	-270	-323	-9057	733	-320	80	78	261	18637	259	76755683
-646	4077	-278	-318	-9059	728	-320	80	78	262	18733	260	76755699
-663	4074	-270	-316	-9060	733	-320	66	82	263	18782	261	76755699
-648	4099	-293	-316	-9062	734	-320	66	82	264	18878	262	76755703
-662	4071	-288	-315	-9055	772	-328	66	80	265	18927	263	76755703
-667	4073	-281	-322	-9060	745	-328	66	80	266	19023	264	76755709
-645	4078	-253	-320	-9064	715	-330	66	80	267	19072	265	76755724
-668	4068	-287	-319	-9066	735	-330	66	80	268	19168	266	76755726
-669	4087	-275	-320	-9070	756	-337	71	85	269	19217	267	76755729
-660	4081	-280	-320	-9071	752	-337	71	85	270	19313	268	76755730
-666	4066	-295	-323	-9068	745	-331	59	81	271	19362	269	76755732
-650	4068	-278	-323	-9066	751	-331	59	81	272	19458	270	76755748
-659	4077	-255	-322	-9064	744	-326	58	90	273	19507	271	76755757
-666	4084	-294	-320	-9065	741	-326	58	90	274	19604	272	76755758
-657	4081	-268	-316	-9066	730	-338	50	90	275	19652	273	76755758
-665	4064	-288	-317	-9066	754	-338	50	90	276	19748	274	76755773
-641	4068	-272	-318	-9069	748	-339	51	93	277	19797	275	76755773
-639	4069	-304	-312	-9065	746	-339	51	93	278	19894	276	76755775
-665	4079	-320	-316	-9062	740	-338	52	90	279	19942	277	76755780
-657	4084	-299	-320	-9062	730	-338	52	90	280	20038	278	76755781
-668	4065	-293	-328	-9065	743	-343	49	89	281	20087	279	76755800
-665	4065	-253	-330	-9063	725	-343	49	89	282	20183	280	76755801
-631	4086	-280	-320	-9064	682	-349	49	95	283	20232	281	76755803
-655	4103	-291	-312	-9065	684	-349	49	95	284	20328	282	76755806
-656	4105	-298	-314	-9062	724	-337	39	89	285	20377	283	76755807
-638	4065	-307	-323	-9062	748	-337	39	89	286	20473	284	76755822
-654	4040	-260	-327	-9060	723	-344	32	100	287	20522	285	76755823
-644	4059	-279	-315	-9062	716	-344	32	100	288	20618	286	76755825
-653	4105	-291	-309	-9062	726	-349	35	95	289	20667	287	76755827
-654	4127	-311	-320	-9063	719	-349	35	95	290	20763	288	76755827
-644	4068	-296	-325	-9065	735	-351	33	85	291	20812	289	76755847
-639	4045	-280	-327	-9063	749	-351	33	85	292	20908	290	76755848
-647	4045	-276	-312	-9064	710	-349	23	93	293	20957	291	76755850
-665	4088	-298	-305	-9065	702	-349	23	93	294	21053	292	76755852
-677	4106	-312	-320	-9062	735	-354	30	88	295	21102	293	76755854
-652	4091	-320	-331	-9058	749	-354	30	88	296	21198	294	76755872
-636	4038	-261	-341	-9059	733	-342	12	94	297	21247	295	76755873
-637	4026	-265	-320	-9064	743	-342	12	94	298	21343	296	76755876
-661	4043	-276	-293	-9064	724	-353	21	89	299	21392	297	76755876
-665	4101	-330	-299	-9061	699	-353	21	89	300	21488	298	76755878
-661	4104	-338	-321	-9061	710	-356	10	80	301	21537	299	76755898
-625	4065	-300	-337	-9058	751	-356	10	80	302	21633	300	76755899
-627	4050	-289	-334	-9056	747	-359	13	93	303	21682	301	76755901
-637	4050	-288	-314	-9057	695	-359	13	93	304	21778	302	76755902
-666	4091	-318	-303	-9062	719	-358	2	76	305	21827	303	76755904
-642	4114	-327	-315	-9060	721	-358	2	76	306	21923	304	76755924
-652	4096	-288	-336	-9058	740	-352	4	84	307	21972	305	76755925
-618	4054	-292	-332	-9062	731	-352	4	84	308	22068	306	76755926
-634	4053	-288	-316	-9061	717	-359	1	81	309	22117	307	76755927
-654	4080	-300	-304	-9062	717	-359	1	81	310	22213	308	76755928
-648	4084	-319	-304	-9062	719	-362	2	76	311	22262	309	76755950
-660	4098	-310	-324	-9062	713	-362	2	76	312	22358	310	76755952
-651	4076	-275	-337	-9059	736	-362	-2	80	313	22407	311	76755953
-635	4067	-310	-324	-9060	724	-362	-2	80	314	22503	312	76755954
-653	4057	-304	-308	-9059	723	-360	-6	68	315	22552	313	76755974
-655	4073	-315	-304	-9064	737	-360	-6	68	316	22648	314	76755975
-674	4071	-329	-319	-9064	733	-369	-9	71	317	22697	315	76755977
-650	4072	-324	-334	-9057	707	-369	-9	71	318	22793	316	76755978
-652	4055	-269	-335	-9056	720	-363	-7	73	319	22842	317	76755979
-634	4049	-305	-326	-9058	742	-363	-7	73	320	22938	318	76755983
-660	4076	-301	-316	-9057	729	-362	-8	64	321	22987	319	76755984
-664	4088	-325	-309	-9056	707	-362	-8	64	322	23083	320	76756000
-659	4058	-337	-316	-9061	696	-363	-9	69	323	23132	321	76756001
-644	4077	-308	-323	-9060	720	-363	-9	69	324	23228	322	76756002
-645	4062	-304	-326	-9057	726	-369	-15	63	325	23277	323	76756022
-663	4083	-306	-323	-9057	721	-369	-15	63	326	23373	324	76756022
-646	4089	-307	-321	-9057	709	-365	-9	61	327	23422	325	76756024
-650	4083	-318	-322	-9060	730	-365	-9	61	328	23518	326	76756025
-668	4081	-324	-320	-9060	757	-364	-16	58	329	23567	327	76756026
-651	4076	-318	-316	-9060	733	-364	-16	58	330	23663	328	76756036
-670	4078	-310	-317	-9062	714	-364	-16	54	331	23712	329	76756036
-649	4069	-346	-315	-9064	720	-364	-16	54	332	23808	330	76756039
-652	4059	-319	-319	-9061	717	-365	-21	51	333	23857	331	76756062
-669	4073	-311	-320	-9060	736	-365	-21	51	334	23953	332	76756063
-638	4066	-313	-322	-9059	738	-371	-21	55	335	24002	333	76756065
-660	4070	-291	-322	-9063	712	-371	-21	55	336	24098	334	76756066
-668	4072	-315	-317	-9066	725	-367	-15	45	337	24147	335	76756068
-654	4067	-327	-318	-9066	709	-367	-15	45	338	24243	336	76756086
-672	4071	-314	-314	-9066	745	-365	-25	47	339	24292	337	76756086
-672	4082	-346	-318	-9062	747	-365	-25	47	340	24388	338	76756089
-675	4085	-332	-325	-9061	758	-369	-23	51	341	24437	339	76756090
-670	4067	-316	-324	-9062	718	-369	-23	51	342	24533	340	76756108
-643	4066	-297	-324	-9061	740	-351	-21	43	343	24582	341	76756109
-666	4059	-315	-319	-9063	740	-351	-21	43	344	24678	342	76756111
-652	4073	-311	-315	-9065	745	-358	-22	40	345	24727	343	76756112
-675	4078	-348	-313	-9067	739	-358	-22	40	346	24823	344	76756112
-670	4088	-316	-318	-9061	726	-359	-17	29	347	24872	345	76756135
-667	4085	-324	-319	-9062	699	-359	-17	29	348	24968	346	76756137
-654	4067	-320	-323	-9063	736	-356	-26	32	349	25017	347	76756138
-676	4056	-333	-319	-9059	735	-356	-26	32	350	25113	348	76756139
-662	4078	-331	-321	-9058	713	-356	-20	28	351	25162	349	76756139
-683	4081	-332	-321	-9064	728	-356	-20	28	352	25258	350	76756160
-655	4094	-319	-320	-9062	748	-364	-28	24	353	25307	351	76756160
-669	4071	-343	-320	-9063	749	-364	-28	24	354	25403	352	76756162
-671	4065	-319	-316	-9061	753	-354	-30	14	355	25452	353	76756164
-675	4071	-331	-316	-9064	708	-354	-30	14	356	25548	354	76756164
-679	4084	-319	-321	-9060	709	-345	-27	21	357	25597	355	76756183
-663	4083	-312	-325	-9059	751	-345	-27	21	358	25693	356	76756184
-684	4090	-314	-325	-9063	743	-350	-26	12	359	25742	357	76756186
-660	4055	-312	-319	-9065	745	-350	-26	12	360	25838	358	76756187
-668	4075	-335	-316	-9062	752	-355	-25	13	361	25887	359	76756188
-683	4071	-339	-311	-9063	735	-355	-25	13	362	25983	360	76756195
-673	4087	-346	-323	-9064	747	-356	-28	6	363	26032	361	76756196
-665	4082	-323	-323	-9062	748	-356	-28	6	364	26128	362	76756234
-667	4068	-319	-324	-9061	731	-352	-26	2	365	26177	363	76756235
-684	4074	-310	-318	-9064	741	-352	-26	2	366	26273	364	76756236
-668	4074	-298	-317	-9064	692	-348	-24	2	367	26322	365	76756239
-702	4085	-313	-316	-9066	692	-348	-24	2	368	26418	366	76756240
-676	4092	-335	-316	-9062	708	-348	-24	-10	369	26467	367	76756241
-694	4075	-333	-321	-9065	758	-348	-24	-10	370	26563	368	76756243
-684	4078	-333	-324	-9062	738	-347	-15	-7	371	26612	369	76756243
-689	4075	-336	-324	-9062	743	-347	-15	-7	372	26708	370	76756260
-661	4076	-332	-325	-9063	729	-350	-22	-14	373	26757	371	76756261
-667	4081	-319	-322	-9064	723	-350	-22	-14	374	26853	372	76756264
-682	4064	-305	-318	-9067	733	-336	-16	-18	375	26902	373	76756265
-687	4068	-318	-316	-9070	732	-336	-16	-18	376	26998	374	76756266
-695	4085	-320	-313	-9068	715	-350	-6	-22	377	27047	375	76756269
-686	4081	-317	-318	-9067	741	-350	-6	-22	378	27143	376	76756274
-677	4085	-328	-321	-9067	755	-341	-13	-39	379	27192	377	76756285
-692	4058	-319	-322	-9065	751	-341	-13	-39	380	27288	378	76756285
-694	4072	-325	-324	-9063	767	-350	-2	-30	381	27337	379	76756287
-706	4083	-305	-321	-9068	750	-350	-2	-30	382	27433	380	76756295
-668	4069	-289	-322	-9063	757	-353	-11	-35	383	27482	381	76756295
-689	4084	-301	-316	-9069	757	-353	-11	-35	384	27578	382	76756309
-685	4075	-310	-317	-9070	732	-357	-3	-43	385	27627	383	76756310
-709	4072	-310	-317	-9068	736	-357	-3	-43	386	27723	384	76756312
-666	4073	-315	-320	-9066	758	-358	-4	-42	387	27772	385	76756320
-690	4070	-306	-325	-9066	766	-358	-4	-42	388	27868	386	76756320
-695	4079	-312	-329	-9067	751	-353	5	-49	389	27917	387	76756333
-683	4058	-324	-322	-9068	729	-353	5	-49	390	28013	388	76756333
-703	4086	-333	-325	-9074	718	-366	14	-44	391	28062	389	76756336
-683	4095	-315	-324	-9067	738	-366	14	-44	392	28158	390	76756369
-703	4072	-301	-314	-9070	716	-364	16	-40	393	28207	391	76756370
-699	4011	-310	-302	-9066	705	-364	16	-40	394	28303	392	76756372
-722	4032	-313	-320	-9064	711	-371	27	-49	395	28352	393	76756373
-692	4127	-317	-334	-9065	716	-371	27	-49	396	28448	394	76756376
-680	4126	-315	-336	-9057	774	-375	13	-37	397	28497	395	76756377
-663	4062	-301	-331	-9063	779	-375	13	-37	398	28593	396	76756377
-699	4003	-288	-302	-9067	706	-364	38	-44	399	28642	397	76756380
-704	4013	-319	-285	-9070	682	-364	38	-44	400	28738	398	76756380
-719	4125	-369	-306	-9064	731	-374	20	-36	401	28787	399	76756400
-699	4170	-336	-337	-9062	744	-374	20	-36	402	28883	400	76756402
-651	4117	-286	-346	-9061	762	-360	34	-14	403	28932	401	76756403
-684	4016	-279	-334	-9059	735	-360	34	-14	404	29028	402	76756404
-699	3998	-293	-293	-9064	732	-373	47	-43	405	29077	403	76756405
-721	4083	-337	-299	-9068	731	-373	47	-43	406	29173	404	76756424
-709	4152	-323	-329	-9066	737	-363	31	-19	407	29222	405	76756425
-682	4140	-312	-334	-9058	746	-363	31	-19	408	29318	406	76756427
-679	4046	-297	-335	-9059	736	-352	56	-26	409	29367	407	76756428
-705	4001	-267	-316	-9058	738	-352	56	-26	410	29463	408	76756429
-712	4047	-305	-302	-9060	750	-362	40	-22	411	29512	409	76756446
-720	4110	-329	-316	-9058	748	-362	40	-22	412	29608	410	76756446
-707	4126	-331	-337	-9061	754	-343	51	3	413	29657	411	76756449
-717	4074	-268	-339	-9060	737	-343	51	3	414	29753	412	76756450
-661	4025	-278	-321	-9061	749	-350	62	-20	415	29802	413	76756453
-704	4042	-274	-310	-9064	730	-350	62	-20	416	29898	414	76756487
-704	4077	-304	-301	-9064	714	-353	47	-11	417	29947	415	76756487
-722	4098	-320	-316	-9064	735	-353	47	-11	418	30043	416	76756491
-691	4094	-308	-335	-9061	764	-340	74	0	419	30092	417	76756492
-692	4046	-292	-339	-9063	770	-340	74	0	420	30188	418	76756494
-676	4048	-264	-328	-9067	730	-352	56	-18	421	30237	419	76756496
-683	4068	-294	-310	-9068	714	-352	56	-18	422	30333	420	76756497
-705	4098	-310	-302	-9064	710	-337	77	-3	423	30382	421	76756512
-729	4116	-310	-313	-9068	745	-337	77	-3	424	30478	422	76756513
-710	4072	-290	-324	-9061	751	-354	74	-4	425	30527	423	76756515
-674	4056	-296	-332	-9062	754	-354	74	-4	426	30623	424	76756516
-696	4059	-268	-334	-9062	741	-333	75	-1	427	30672	425	76756517
-684	4077	-266	-323	-9066	717	-333	75	-1	428	30768	426	76756537
-733	4093	-289	-311	-9068	727	-330	84	6	429	30817	427	76756538
-698	4090	-307	-312	-9072	728	-330	84	6	430	30913	428	76756540
-700	4065	-306	-322	-9068	745	-340	70	4	431	30962	429	76756542
-670	4077	-270	-332	-9069	742	-340	70	4	432	31058	430	76756542
-684	4082	-282	-325	-9064	734	-329	89	3	433	31107	431	76756562
-681	4076	-299	-316	-9065	715	-329	89	3	434	31203	432	76756563
-691	4076	-285	-318	-9069	735	-325	83	13	435	31252	433	76756566
-715	4066	-300	-321	-9064	743	-325	83	13	436	31348	434	76756566
-680	4074	-263	-326	-9068	758	-322	92	6	437	31397	435	76756568
-705	4086	-290	-323	-9073	722	-322	92	6	438	31493	436	76756588
-681	4090	-299	-318	-9073	717	-322	92	22	439	31542	437	76756589
-700	4085	-301	-310	-9070	695	-322	92	22	440	31638	438	76756592
-709	4059	-278	-315	-9065	720	-320	84	18	441	31687	439	76756592
-708	4069	-290	-328	-9068	732	-320	84	18	442	31783	440	76756594
-681	4063	-280	-332	-9070	743	-310	102	18	443	31832	441	76756613
-701	4086	-270	-332	-9073	716	-310	102	18	444	31928	442	76756613
-689	4083	-274	-320	-9077	746	-318	90	28	445	31977	443	76756616
-678	4073	-272	-315	-9076	725	-318	90	28	446	32073	444	76756617
-699	4074	-269	-315	-9073	740	-317	103	21	447	32122	445	76756619
-685	4090	-303	-321	-9073	721	-317	103	21	448	32218	446	76756638
-679	4077	-284	-325	-9073	724	-308	112	38	449	32267	447	76756638
-687	4066	-277	-330	-9072	707	-308	112	38	450	32364	448	76756641
-683	4069	-276	-320	-9074	739	-313	93	35	451	32413	449	76756642
-693	4063	-279	-315	-9075	715	-313	93	35	452	32509	450	76756644
-692	4090	-288	-315	-9078	711	-303	107	33	453	32558	451	76756663
-689	4102	-312	-316	-9075	725	-303	107	33	454	32654	452	76756664
-711	4103	-272	-324	-9073	776	-305	111	45	455	32703	453	76756667
-705	4065	-295	-325	-9070	753	-305	111	45	456	32799	454	76756667
-697	4062	-266	-327	-9074	739	-298	110	42	457	32848	455	76756672
-694	4069	-269	-323	-9074	742	-298	110	42	458	32944	456	76756672
-682	4098	-273	-319	-9072	728	-294	106	46	459	32993	457	76756688
-698	4097	-270	-326	-9076	732	-294	106	46	460	33089	458	76756689
-677	4088	-289	-326	-9078	733	-298	102	54	461	33138	459	76756689
-695	4060	-270	-318	-9074	760	-298	102	54	462	33234	460	76756696
-684	4080	-285	-315	-9077	751	-292	104	52	463	33283	461	76756697
-703	4070	-290	-317	-9075	706	-292	104	52	464	33379	462	76756713
-696	4091	-290	-321	-9070	727	-291	95	55	465	33428	463	76756714
-710	4082	-262	-330	-9071	748	-291	95	55	466	33524	464	76756715
-674	4085	-252	-324	-9070	755	-289	103	51	467	33573	465	76756723
-694	4059	-274	-318	-9073	744	-289	103	51	468	33669	466	76756724
-684	4077	-315	-314	-9072	744	-288	96	62	469	33718	467	76756725
-685	4068	-305	-311	-9077	727	-288	96	62	470	33814	468	76756738
-687	4089	-270	-323	-9068	751	-283	95	53	471	33863	469	76756738
-679	4093	-268	-327	-9069	770	-283	95	53	472	33959	470	76756747
-667	4073	-270	-333	-9068	770	-287	97	59	473	34008	471	76756747
-676	4094	-267	-328	-9071	758	-287	97	59	474	34104	472	76756763
-713	4088	-272	-315	-9073	734	-285	89	67	475	34153	473	76756765
-684	4090	-285	-316	-9076	741	-285	89	67	476	34249	474	76756766
-693	4084	-284	-318	-9078	760	-285	99	59	477	34298	475	76756772
-678	4098	-280	-323	-9075	770	-285	99	59	478	34394	476	76756773
-697	4081	-283	-323	-9068	743	-284	90	62	479	34443	477	76756774
-687	4108	-275	-320	-9068	746	-284	90	62	480	34539	478	76756793
-691	4082	-256	-323	-9070	746	-289	91	65	481	34588	479	76756796
-675	4080	-258	-321	-9073	748	-289	91	65	482	34684	480	76756797
-675	4055	-274	-318	-9072	731	-287	83	61	483	34733	481	76756798
-655	4071	-276	-316	-9072	734	-287	83	61	484	34829	482	76756817
-681	4072	-279	-315	-9077	736	-279	75	67	485	34878	483	76756819
-681	4088	-281	-318	-9073	728	-279	75	67	486	34974	484	76756822
-698	4072	-278	-326	-9070	734	-282	86	60	487	35023	485	76756823
-671	4060	-278	-326	-9067	747	-282	86	60	488	35119	486	76756824
-664	4063	-241	-325	-9069	746	-290	84	56	489	35168	487	76756839
-691	4088	-274	-323	-9071	740	-290	84	56	490	35264	488	76756839
-665	4074	-267	-320	-9072	724	-287	83	61	491	35313	489	76756841
-680	4082	-266	-318	-9071	736	-287	83	61	492	35409	490	76756847
-677	4067	-273	-315	-9068	748	-297	85	55	493	35458	491	76756848
-658	4071	-296	-319	-9067	733	-297	85	55	494	35554	492	76756890
-666	4087	-279	-320	-9067	709	-294	72	66	495	35603	493	76756890
-654	4077	-278	-325	-9067	727	-294	72	66	496	35699	494	76756892
-655	4085	-250	-327	-9064	728	-301	85	59	497	35748	495	76756894
-659	4061	-255	-325	-9069	740	-301	85	59	498	35844	496	76756894
-676	4094	-282	-320	-9069	739	-300	80	60	499	35893	497	76756898
-662	4083	-295	-318	-9067	725	-300	80	60	500	35989	498	76756898
-687	4075	-269	-320	-9061	727	-305	81	59	501	36038	499	76756900
-662	4078	-286	-320	-9064	744	-305	81	59	502	36134	500	76756912
-658	4084	-264	-327	-9065	718	-303	89	69	503	36183	501	76756913
-673	4085	-263	-326	-9062	735	-303	89	69	504	36279	502	76756916
-663	4082	-269	-319	-9064	743	-303	69	73	505	36328	503	76756916
-676	4083	-279	-316	-9062	743	-303	69	73	506	36424	504	76756918
-655	4097	-274	-318	-9070	716	-304	84	70	507	36473	505	76756920
-669	4071	-284	-317	-9069	720	-304	84	70	508	36569	506	76756923
-651	4068	-297	-321	-9063	742	-310	78	72	509	36618	507	76756937
-663	4074	-284	-321	-9060	751	-310	78	72	510	36714	508	76756938
-647	4079	-251	-326	-9061	764	-307	77	71	511	36763	509	76756941
-651	4078	-252	-323	-9063	730	-307	77	71	512	36859	510	76756941
-674	4077	-267	-320	-9059	730	-312	82	66	513	36908	511	76756945
-642	4079	-262	-315	-9065	725	-312	82	66	514	37004	512	76756962
-660	4067	-262	-318	-9066	715	-319	73	77	515	37053	513	76756962
-669	4073	-305	-318	-9064	742	-319	73	77	516	37149	514	76756966
-652	4080	-280	-320	-9062	749	-314	74	76	517	37198	515	76756966
-669	4089	-282	-319	-9056	724	-314	74	76	518	37294	516	76756970
-659	4077	-268	-320	-9053	735	-315	73	71	519	37343	517	76756987
-670	4065	-254	-323	-9062	743	-315	73	71	520	37439	518	76756988
-655	4059	-283	-317	-9058	707	-328	68	84	521	37488	519	76756991
-666	4077	-281	-321	-9058	712	-328	68	84	522	37584	520	76756993
-653	4068	-268	-319	-9061	707	-332	76	76	523	37633	521	76756995
-672	4072	-298	-319	-9058	702	-332	76	76	524	37729	522	76757013
-648	4081	-270	-324	-9057	753	-330	60	86	525	37778	523	76757013
-660	4079	-298	-320	-9055	752	-330	60	86	526	37874	524	76757016
-660	4078	-284	-324	-9059	738	-325	75	79	527	37923	525	76757017
-653	4094	-274	-323	-9056	732	-325	75	79	528	38019	526	76757020
-645	4086	-292	-318	-9062	749	-331	69	83	529	38068	527	76757038
-666	4068	-273	-318	-9063	746	-331	69	83	530	38164	528	76757038
-645	4058	-280	-317	-9060	740	-328	64	92	531	38213	529	76757046
-656	4076	-283	-317	-9067	729	-328	64	92	532	38309	530	76757046
-650	4072	-280	-318	-9064	743	-339	59	87	533	38358	531	76757047
-652	4079	-300	-322	-9060	729	-339	59	87	534	38454	532	76757063
-652	4075	-274	-327	-9062	738	-346	48	92	535	38503	533	76757063
-636	4068	-264	-324	-9062	765	-346	48	92	536	38599	534	76757066
-666	4075	-276	-318	-9066	743	-348	54	92	537	38648	535	76757067
-656	4068	-295	-314	-9071	735	-348	54	92	538	38744	536	76757069
-650	4081	-289	-312	-9064	711	-339	45	79	539	38793	537	76757088
-650	4063	-292	-322	-9063	724	-339	45	79	540	38889	538	76757088
-645	4063	-282	-327	-9063	738	-346	48	94	541	38938	539	76757092
-659	4070	-276	-320	-9060	735	-346	48	94	542	39034	540	76757092
-659	4085	-300	-314	-9061	710	-345	41	89	543	39083	541	76757112
-636	4089	-300	-312	-9062	720	-345	41	89	544	39179	542	76757113
-657	4077	-305	-318	-9060	717	-349	37	97	545	39228	543	76757115
-652	4065	-283	-325	-9061	739	-349	37	97	546	39324	544	76757117
-629	4068	-274	-325	-9058	724	-342	32	94	547	39373	545	76757117
-656	4075	-291	-317	-9061	729	-342	32	94	548	39469	546	76757140
-659	4119	-296	-318	-9060	741	-346	30	88	549	39518	547	76757145
-667	4115	-288	-323	-9060	718	-346	30	88	550	39614	548	76757147
-647	4048	-277	-334	-9061	742	-351	29	95	551	39663	549	76757148
-634	3996	-254	-328	-9058	742	-351	29	95	552	39759	550	76757149
-657	4041	-293	-305	-9065	720	-356	26	88	553	39808	551	76757162
-662	4148	-337	-293	-9066	735	-356	26	88	554	39904	552	76757163
-647	4172	-344	-316	-9058	746	-348	16	92	555	39953	553	76757165
-634	4042	-279	-345	-9055	753	-348	16	92	556	40049	554	76757166
-633	3961	-251	-341	-9060	780	-352	16	90	557	40098	555	76757167
-636	4022	-281	-310	-9064	712	-352	16	90	558	40194	556	76757187
-688	4144	-329	-286	-9062	689	-358	14	88	559	40243	557	76757188
-682	4195	-357	-311	-9060	717	-358	14	88	560	40339	558	76757192
-620	4090	-303	-345	-9057	737	-355	9	85	561	40388	559	76757192
-620	3951	-265	-347	-9053	745	-355	9	85	562	40484	560	76757194
-643	3993	-246	-319	-9057	732	-364	10	82	563	40533	561	76757213
-702	4111	-329	-282	-9058	703	-364	10	82	564	40629	562	76757214
-674	4184	-372	-291	-9057	735	-364	2	80	565	40678	563	76757217
-661	4135	-333	-346	-9054	778	-364	2	80	566	40774	564	76757217
-608	4009	-261	-369	-9053	783	-361	3	75	567	40823	565	76757219
-611	3967	-237	-332	-9061	730	-361	3	75	568	40919	566	76757238
-654	4073	-310	-280	-9064	688	-365	-1	77	569	40968	567	76757239
-679	4155	-348	-277	-9061	695	-365	-1	77	570	41065	568	76757242
-655	4155	-359	-328	-9056	751	-360	-12	76	571	41113	569	76757243
-658	4044	-285	-368	-9053	776	-360	-12	76	572	41209	570	76757246
-602	3981	-248	-359	-9050	746	-362	-4	76	573	41258	571	76757246
-646	4022	-273	-312	-9060	738	-362	-4	76	574	41354	572	76757263
-690	4105	-336	-279	-9064	707	-365	-9	73	575	41403	573	76757264
-687	4149	-363	-294	-9062	710	-365	-9	73	576	41499	574	76757265
-643	4102	-331	-336	-9056	728	-364	-6	74	577	41548	575	76757272
-631	4043	-302	-346	-9055	760	-364	-6	74	578	41644	576	76757280
-643	4027	-265	-323	-9056	736	-364	-16	66	579	41693	577	76757310
-650	4086	-305	-297	-9056	705	-364	-16	66	580	41789	578	76757311
-682	4132	-344	-299	-9058	710	-365	-13	61	581	41838	579	76757312
-665	4133	-341	-320	-9059	734	-365	-13	61	582	41934	580	76757313
-635	4056	-316	-343	-9055	774	-371	-13	63	583	41983	581	76757313
-611	3990	-273	-334	-9056	752	-371	-13	63	584	42079	582	76757314
-646	4032	-299	-302	-9058	717	-372	-16	62	585	42128	583	76757314
-666	4116	-341	-298	-9061	714	-372	-16	62	586	42224	584	76757315
-669	4139	-370	-321	-9057	743	-363	-17	57	587	42273	585	76757322
-663	4121	-318	-342	-9050	762	-363	-17	57	588	42369	586	76757323
-655	4028	-273	-342	-9054	727	-363	-17	57	589	42418	587	76757352
-641	4007	-263	-313	-9059	708	-363	-17	57	590	42514	588	76757392
-673	4058	-319	-294	-9062	698	-368	-18	56	591	42563	589	76757418
-670	4138	-353	-299	-9060	734	-368	-18	56	592	42659	590	76757419
-656	4127	-348	-326	-9052	769	-366	-20	48	593	42708	591	76757448
-630	4062	-297	-350	-9056	762	-366	-20	48	594	42804	592	76757457
-642	4010	-277	-338	-9057	743	-363	-23	49	595	42853	593	76757458
-650	4018	-275	-312	-9058	717	-363	-23	49	596	42949	594	76757459
-674	4082	-313	-296	-9066	710	-359	-23	47	597	42998	595	76757459
-689	4135	-336	-309	-9063	733	-359	-23	47	598	43094	596	76757459
-642	4103	-344	-331	-9062	735	-366	-18	44	599	43143	597	76757467
-658	4051	-290	-334	-9061	736	-366	-18	44	600	43239	598	76757478
-645	4008	-305	-316	-9061	740	-368	-26	44	601	43288	599	76757478
-671	4056	-325	-302	-9060	701	-368	-26	44	602	43384	600	76757479
-685	4125	-352	-307	-9058	733	-367	-25	31	603	43433	601	76757480
-669	4133	-312	-325	-9064	735	-367	-25	31	604	43529	602	76757480
-655	4072	-303	-341	-9057	751	-368	-26	36	605	43578	603	76757481
-637	4041	-298	-330	-9059	725	-368	-26	36	606	43674	604	76757481
-652	4031	-302	-310	-9066	708	-359	-23	33	607	43723	605	76757482
-682	4074	-358	-297	-9068	717	-359	-23	33	608	43819	606	76757482
-665	4112	-341	-313	-9056	720	-358	-32	26	609	43868	607	76757483
-675	4081	-321	-335	-9059	748	-358	-32	26	610	43964	608	76757483
-652	4038	-297	-337	-9057	748	-358	-26	30	611	44013	609	76757484
-665	4038	-287	-325	-9061	735	-358	-26	30	612	44109	610	76757484
-664	4059	-317	-307	-9061	706	-357	-19	17	613	44158	611	76757485
-686	4086	-309	-301	-9059	700	-357	-19	17	614	44254	612	76757493
-685	4065	-327	-314	-9060	712	-346	-34	16	615	44303	613	76757494
-677	4061	-320	-329	-9060	749	-346	-34	16	616	44399	614	76757494
-664	4076	-319	-332	-9058	732	-357	-21	11	617	44448	615	76757495
-682	4074	-316	-325	-9060	728	-357	-21	11	618	44544	616	76757495
-662	4074	-314	-314	-9061	718	-353	-25	11	619	44593	617	76757495
-682	4085	-326	-314	-9065	718	-353	-25	11	620	44689	618	76757496
-687	4078	-338	-317	-9063	724	-352	-26	8	621	44738	619	76757516
-652	4075	-310	-316	-9063	722	-352	-26	8	622	44834	620	76757517
-678	4094	-299	-320	-9066	748	-354	-16	0	623	44883	621	76757524
-663	4073	-343	-317	-9067	749	-354	-16	0	624	44979	622	76757525
-676	4097	-319	-319	-9064	727	-353	-13	-9	625	45028	623	76757525
-691	4050	-346	-316	-9065	734	-353	-13	-9	626	45124	624	76757526
-690	4066	-301	-325	-9061	731	-349	-23	-9	627	45173	625	76757527
-707	4082	-304	-327	-9064	732	-349	-23	-9	628	45269	626	76757539
-663	4091	-310	-320	-9067	720	-346	-24	-20	629	45318	627	76757539
-680	4078	-307	-318	-9071	708	-346	-24	-20	630	45414	628	76757541
-684	4088	-336	-316	-9066	728	-349	-21	-7	631	45463	629	76757542
-684	4052	-345	-315	-9068	751	-349	-21	-7	632	45559	630	76757543
-683	4067	-331	-320	-9061	785	-352	-16	-18	633	45608	631	76757565
-691	4096	-304	-333	-9060	726	-352	-16	-18	634	45704	632	76757565
-660	4102	-309	-333	-9062	742	-345	-15	-23	635	45753	633	76757567
-677	4054	-306	-323	-9062	746	-345	-15	-23	636	45849	634	76757569
-679	4035	-324	-312	-9061	740	-353	-13	-31	637	45898	635	76757569
-718	4076	-314	-309	-9064	729	-353	-13	-31	638	45994	636	76757589
-689	4079	-324	-319	-9065	747	-339	-23	-27	639	46043	637	76757590
-695	4099	-330	-331	-9066	761	-339	-23	-27	640	46139	638	76757592
-671	4073	-286	-336	-9064	769	-358	-8	-36	641	46188	639	76757593
-688	4048	-312	-323	-9064	741	-358	-8	-36	642	46284	640	76757594
-666	4063	-331	-312	-9063	702	-355	-9	-31	643	46333	641	76757614
-712	4076	-311	-310	-9068	741	-355	-9	-31	644	46429	642	76757614
-695	4096	-317	-314	-9067	738	-353	-3	-45	645	46478	643	76757617
-690	4072	-337	-319	-9068	741	-353	-3	-45	646	46574	644	76757617
-689	4055	-327	-320	-9069	738	-373	-1	-41	647	46623	645	76757620
-683	4060	-336	-320	-9067	739	-373	-1	-41	648	46719	646	76757638
-693	4088	-321	-322	-9065	729	-361	9	-41	649	46768	647	76757639
-691	4093	-328	-324	-9067	756	-361	9	-41	650	46864	648	76757643
-672	4084	-300	-326	-9064	747	-364	16	-52	651	46913	649	76757644
-696	4048	-326	-320	-9068	733	-364	16	-52	652	47009	650	76757646
-696	4049	-312	-314	-9063	711	-367	9	-35	653	47058	651	76757663
-692	4081	-313	-317	-9066	723	-367	9	-35	654	47154	652	76757664
-711	4096	-339	-318	-9066	732	-363	25	-51	655	47203	653	76757667
-689	4086	-322	-321	-9065	751	-363	25	-51	656	47299	654	76757667
-708	4067	-290	-325	-9064	740	-383	29	-41	657	47348	655	76757672
-681	4046	-297	-322	-9066	716	-383	29	-41	658	47444	656	76757688
-684	4055	-314	-314	-9064	712	-361	29	-33	659	47493	657	76757688
-695	4056	-312	-309	-9069	724	-361	29	-33	660	47589	658	76757692
-698	4079	-320	-315	-9066	701	-384	38	-38	661	47638	659	76757692
-703	4070	-316	-326	-9066	716	-384	38	-38	662	47734	660	76757697
-697	4077	-300	-328	-9060	725	-368	30	-22	663	47783	661	76757698
-694	4061	-286	-329	-9063	729	-368	30	-22	664	47879	662	76757712
-686	4083	-295	-325	-9065	746	-357	53	-27	665	47928	663	76757714
-696	4093	-319	-321	-9066	741	-357	53	-27	666	48024	664	76757714
-700	4078	-288	-316	-9061	729	-370	38	-28	667	48073	665	76757749
-684	4087	-316	-314	-9064	730	-370	38	-28	668	48169	666	76757749
-694	4078	-294	-318	-9062	738	-359	57	-1	669	48218	667	76757751
-685	4083	-331	-320	-9062	722	-359	57	-1	670	48314	668	76757752
-699	4080	-313	-318	-9060	766	-362	56	-24	671	48363	669	76757753
-693	4085	-301	-325	-9057	740	-362	56	-24	672	48459	670	76757756
-721	4090	-293	-323	-9055	720	-350	44	-14	673	48508	671	76757756
-687	4076	-289	-323	-9061	706	-350	44	-14	674	48604	672	76757759
-687	4070	-278	-318	-9065	725	-348	64	-2	675	48653	673	76757764
-705	4075	-295	-313	-9063	742	-348	64	-2	676	48749	674	76757764
-695	4088	-317	-319	-9063	750	-352	56	-20	677	48798	675	76757781
-706	4086	-306	-321	-9061	752	-352	56	-20	678	48894	676	76757781
-704	4076	-297	-322	-9056	742	-348	80	-4	679	48943	677	76757782
-692	4073	-315	-324	-9057	761	-348	80	-4	680	49039	678	76757787
-709	4092	-289	-320	-9061	737	-344	66	-10	681	49088	679	76757789
-683	4082	-302	-315	-9064	750	-344	66	-10	682	49184	680	76757805
-693	4088	-295	-312	-9062	729	-336	66	-8	683	49233	681	76757806
-705	4080	-294	-315	-9067	751	-336	66	-8	684	49329	682	76757806
-692	4069	-292	-318	-9062	725	-333	83	11	685	49378	683	76757813
-711	4073	-307	-323	-9062	715	-333	83	11	686	49474	684	76757813
-668	4083	-279	-325	-9064	725	-339	71	-11	687	49523	685	76757831
-692	4082	-284	-327	-9065	747	-339	71	-11	688	49620	686	76757831
-714	4089	-275	-324	-9065	729	-323	85	9	689	49668	687	76757833
-695	4077	-269	-315	-9070	728	-323	85	9	690	49764	688	76757840
-705	4081	-292	-311	-9073	736	-330	76	6	691	49813	689	76757841
-726	4085	-267	-312	-9067	734	-330	76	6	692	49909	690	76757856
-711	4080	-325	-318	-9065	743	-330	84	4	693	49958	691	76757857
-694	4073	-300	-322	-9068	747	-330	84	4	694	50054	692	76757860
-713	4078	-282	-325	-9066	731	-320	88	18	695	50103	693	76757861
-702	4069	-259	-324	-9064	735	-320	88	18	696	50199	694	76757864
-672	4079	-279	-320	-9065	730	-326	86	6	697	50248	695	76757882
-703	4079	-294	-319	-9073	751	-326	86	6	698	50344	696	76757882
-702	4080	-271	-314	-9073	742	-314	100	24	699	50393	697	76757885
-718	4080	-318	-312	-9069	734	-314	100	24	700	50489	698	76757886
-687	4078	-289	-321	-9070	746	-321	97	21	701	50538	699	76757888
-697	4075	-284	-329	-9068	753	-321	97	21	702	50634	700	76757903
-677	4083	-256	-324	-9066	771	-316	100	28	703	50683	701	76757904
-688	4070	-280	-321	-9067	738	-316	100	28	704	50779	702	76757908
-688	4079	-283	-319	-9073	724	-315	105	27	705	50828	703	76757908
-704	4062	-280	-315	-9073	718	-315	105	27	706	50924	704	76757911
-684	4092	-279	-314	-9076	717	-311	103	35	707	50973	705	76757945
-718	4075	-310	-318	-9073	703	-311	103	35	708	51069	706	76757948
-706	4085	-305	-323	-9068	741	-303	101	33	709	51118	707	76757950
-720	4074	-285	-326	-9068	753	-303	101	33	710	51215	708	76757952
-693	4070	-268	-326	-9070	745	-307	103	33	711	51264	709	76757954
-699	4075	-289	-323	-9079	752	-307	103	33	712	51360	710	76757954
-694	4070	-262	-323	-9076	744	-310	108	28	713	51409	711	76757956
-690	4104	-287	-317	-9073	739	-310	108	28	714	51505	712	76757970
-697	4065	-268	-316	-9075	733	-300	102	46	715	51554	713	76757970
-688	4084	-292	-319	-9074	745	-300	102	46	716	51650	714	76757972
-687	4079	-294	-323	-9074	746	-301	103	49	717	51699	715	76757974
-687	4080	-285	-325	-9071	740	-301	103	49	718	51795	716	76757974
-664	4081	-263	-326	-9072	726	-295	109	51	719	51844	717	76757995
-683	4090	-284	-323	-9072	740	-295	109	51	720	51940	718	76757996
-697	4074	-268	-318	-9073	730	-296	98	52	721	51989	719	76757999
-686	4089	-278	-313	-9072	704	-296	98	52	722	52085	720	76758000
-709	4081	-293	-316	-9072	772	-294	106	50	723	52134	721	76758001
-678	4075	-287	-322	-9073	736	-294	106	50	724	52230	722	76758020
-684	4079	-278	-322	-9072	742	-288	106	60	725	52279	723	76758021
-689	4070	-256	-326	-9072	747	-288	106	60	726	52375	724	76758024
-675	4062	-268	-322	-9073	743	-286	92	60	727	52424	725	76758024
-681	4073	-275	-319	-9076	732	-286	92	60	728	52520	726	76758026
-697	4079	-280	-316	-9075	708	-290	102	56	729	52569	727	76758045
-670	4089	-275	-314	-9074	725	-290	102	56	730	52665	728	76758046
-684	4069	-258	-318	-9075	748	-291	97	61	731	52714	729	76758049
-681	4064	-281	-321	-9074	718	-291	97	61	732	52810	730	76758050
-673	4059	-282	-322	-9071	714	-288	104	54	733	52859	731	76758051
-686	4087	-291	-322	-9075	725	-288	104	54	734	52955	732	76758071
-683	4089	-256	-322	-9072	711	-281	91	57	735	53004	733	76758072
-692	4075	-268	-317	-9075	733	-281	91	57	736	53100	734	76758074
-667	4083	-286	-317	-9074	725	-287	85	65	737	53149	735	76758075
-703	4081	-283	-308	-9071	717	-287	85	65	738	53245	736	76758077
-684	4080	-292	-313	-9070	718	-286	90	58	739	53294	737	76758095
-691	4081	-291	-317	-9069	732	-286	90	58	740	53390	738	76758096
-690	4081	-275	-327	-9070	740	-287	87	65	741	53439	739	76758099
-671	4085	-253	-329	-9071	722	-287	87	65	742	53535	740	76758099
-671	4070	-265	-320	-9069	739	-291	93	61	743	53584	741	76758101
-665	4050	-284	-314	-9073	716	-291	93	61	744	53680	742	76758120
-668	4083	-279	-309	-9076	725	-288	84	66	745	53729	743	76758120
-666	4085	-301	-315	-9068	751	-288	84	66	746	53825	744	76758124
-654	4087	-272	-327	-9068	753	-283	75	75	748	53840	745	76758153
-697	4068	-245	-323	-9071	716	-293	81	57	749	53889	746	76758154
-676	4079	-251	-318	-9070	742	-293	81	57	750	53985	747	76758156
-662	4087	-271	-314	-9070	752	-296	78	58	751	54034	748	76758171
-691	4076	-276	-316	-9070	706	-296	78	58	752	54130	749	76758172
-667	4078	-269	-318	-9068	730	-291	87	59	753	54179	750	76758175
-661	4069	-286	-319	-9069	722	-291	87	59	754	54275	751	76758175
-670	4068	-255	-317	-9067	743	-297	89	53	755	54324	752	76758177
-670	4075	-275	-317	-9066	735	-297	89	53	756	54420	753	76758179
-675	4072	-250	-318	-9061	745	-300	82	70	757	54469	754	76758179
-668	4082	-292	-321	-9061	755	-300	82	70	758	54565	755	76758198
-672	4057	-272	-323	-9062	724	-300	84	66	759	54614	756	76758200
-666	4095	-263	-324	-9062	721	-300	84	66	760	54710	757	76758201
-657	4068	-280	-311	-9064	718	-306	78	72	761	54759	758	76758202
-659	4070	-284	-311	-9063	737	-306	78	72	762	54855	759	76758203
-669	4099	-281	-318	-9057	735	-304	84	62	763	54904	760	76758205
-674	4094	-283	-324	-9059	727	-304	84	62	764	55000	761	76758206
-640	4078	-246	-330	-9060	724	-306	74	66	765	55049	762	76758223
-656	4074	-253	-325	-9061	742	-306	74	66	766	55145	763	76758225
-656	4089	-263	-315	-9064	735	-315	77	67	767	55194	764	76758226
-672	4091	-305	-310	-9062	744	-315	77	67	768	55290	765	76758228
-655	4065	-276	-314	-9065	750	-319	81	71	769	55339	766	76758228
-662	4080	-267	-325	-9062	751	-319	81	71	770	55435	767	76758246
-646	4081	-282	-323	-9062	739	-314	74	72	771	55484	768	76758248
-657	4078	-289	-320	-9062	751	-314	74	72	772	55580	769	76758248
-648	4092	-261	-321	-9064	726	-312	80	74	773	55629	770	76758256
-649	4071	-276	-315	-9063	743	-312	80	74	774	55725	771	76758256
-668	4085	-277	-317	-9058	734	-319	71	73	775	55774	772	76758257
-655	4065	-288	-319	-9062	713	-319	71	73	776	55870	773	76758272
-648	4081	-271	-314	-9063	712	-319	71	79	777	55919	774	76758274
-644	4076	-285	-316	-9060	734	-319	71	79	778	56015	775	76758279
-667	4074	-268	-315	-9056	731	-327	71	77	779	56064	776	76758280
-658	4072	-281	-317	-9063	719	-327	71	77	780	56160	777	76758296
-664	4066	-274	-322	-9060	713	-325	71	93	781	56209	778	76758297
-634	4084	-277	-323	-9059	732	-325	71	93	782	56305	779	76758299
-650	4074	-248	-322	-9059	731	-329	69	83	783	56354	780	76758305
-658	4066	-272	-315	-9060	726	-329	69	83	784	56450	781	76758305
-634	4077	-289	-315	-9058	717	-326	64	82	785	56499	782	76758321
-670	4075	-296	-320	-9056	736	-326	64	82	786	56595	783	76758323
-640	4090	-295	-324	-9056	746	-333	67	87	787	56644	784	76758325
-652	4077	-261	-334	-9057	733	-333	67	87	788	56740	785	76758329
-660	4070	-255	-322	-9058	733	-337	61	81	789	56789	786	76758330
-658	4071	-279	-313	-9054	739	-337	61	81	790	56885	787	76758345
-652	4086	-313	-311	-9060	715	-331	57	91	791	56934	788	76758346
-658	4072	-298	-312	-9064	732	-331	57	91	792	57030	789	76758348
-632	4080	-280	-324	-9055	750	-334	58	92	793	57079	790	76758354
-643	4071	-297	-324	-9057	737	-334	58	92	794	57175	791	76758354
-656	4071	-307	-318	-9059	743	-338	56	84	795	57224	792	76758370
-661	4057	-288	-321	-9059	743	-338	56	84	796	57320	793	76758370
-659	4078	-306	-313	-9063	721	-338	46	100	797	57369	794	76758372
-657	4082	-292	-319	-9061	717	-338	46	100	798	57465	795	76758379
-648	4075	-301	-318	-9064	726	-343	47	91	799	57514	796	76758380
-642	4068	-299	-315	-9061	719	-343	47	91	800	57610	797	76758395
-670	4070	-296	-319	-9056	734	-350	46	90	801	57659	798	76758396
-653	4072	-292	-313	-9058	734	-350	46	90	802	57755	799	76758397
-654	4088	-309	-315	-9058	738	-342	38	92	803	57804	800	76758404
-663	4088	-281	-317	-9061	745	-342	38	92	804	57900	801	76758405
-642	4065	-305	-318	-9062	736	-355	31	95	805	57949	802	76758420
-657	4080	-288	-318	-9064	746	-355	31	95	806	58045	803	76758421
-649	4084	-297	-316	-9061	720	-348	30	94	807	58094	804	76758422
-657	4072	-317	-316	-9061	720	-348	30	94	808	58190	805	76758425
-636	4083	-292	-321	-9056	744	-345	37	93	809	58239	806	76758426
-643	4079	-295	-324	-9057	741	-345	37	93	810	58335	807	76758445
-629	4075	-298	-327	-9056	722	-359	33	99	811	58384	808	76758446
-622	4077	-287	-317	-9058	716	-359	33	99	812	58480	809	76758449
-629	4077	-295	-311	-9058	742	-351	25	95	813	58529	810	76758449
-640	4074	-317	-314	-9057	737	-351	25	95	814	58625	811	76758455
-666	4079	-310	-315	-9059	736	-363	11	83	815	58674	812	76758470
-641	4083	-305	-320	-9061	761	-363	11	83	816	58770	813	76758471
-628	4068	-307	-324	-9060	727	-350	12	94	817	58819	814	76758474
-668	4074	-275	-321	-9057	744	-350	12	94	818	58915	815	76758474
-646	4070	-281	-320	-9058	749	-361	15	85	819	58964	816	76758477
-652	4087	-273	-317	-9057	725	-361	15	85	820	59060	817	76758496
-638	4075	-304	-320	-9057	732	-359	3	89	821	59109	818	76758496
-668	4059	-297	-319	-9058	745	-359	3	89	822	59205	819	76758499
-654	4082	-311	-315	-9054	731	-357	11	83	823	59254	820	76758499
-650	4058	-327	-323	-9059	733	-357	11	83	824	59350	821	76758503
-638	4066	-317	-323	-9056	728	-363	-1	79	825	59399	822	76758521
-657	4060	-317	-326	-9055	719	-363	-1	79	826	59495	823	76758522
-652	4084	-286	-323	-9057	729	-354	4	80	827	59544	824	76758524
-656	4074	-310	-312	-9057	730	-354	4	80	828	59640	825	76758525
-653	4071	-303	-314	-9057	701	-360	2	72	829	59689	826	76758528
-653	4072	-308	-314	-9056	735	-360	2	72	830	59785	827	76758546
-655	4080	-330	-317	-9054	723	-360	-6	62	831	59834	828	76758546
-649	4072	-286	-328	-9052	719	-360	-6	62	832	59930	829	76758549
-635	4089	-299	-324	-9055	732	-360	-4	66	833	59979	830	76758550
-644	4066	-289	-324	-9056	745	-360	-4	66	834	60075	831	76758553
-658	4072	-307	-323	-9058	743	-370	-12	72	835	60124	832	76758571
-666	4080	-293	-318	-9056	745	-370	-12	72	836	60220	833	76758571
-649	4075	-313	-314	-9057	713	-364	-10	70	837	60269	834	76758574
-659	4063	-304	-315	-9059	715	-364	-10	70	838	60365	835	76758574
-644	4060	-322	-319	-9061	726	-360	-10	58	839	60414	836	76758576
-668	4066	-317	-324	-9055	725	-360	-10	58	840	60510	837	76758595
-644	4068	-285	-324	-9059	736	-362	-16	62	841	60559	838	76758596
-655	4084	-312	-322	-9060	716	-362	-16	62	842	60655	839	76758599
-672	4068	-274	-318	-9055	728	-365	-19	65	843	60704	840	76758600
-658	4073	-314	-314	-9059	746	-365	-19	65	844	60800	841	76758622
-672	4071	-301	-320	-9062	747	-368	-22	56	845	60849	842	76758622
-648	4072	-332	-320	-9058	737	-368	-22	56	846	60945	843	76758624
-669	4074	-323	-321	-9059	708	-367	-17	53	847	60994	844	76758626
-656	4083	-307	-322	-9057	717	-367	-17	53	848	61090	845	76758626
-661	4074	-319	-321	-9056	722	-372	-16	56	849	61139	846	76758643
-653	4086	-329	-323	-9062	714	-372	-16	56	850	61235	847	76758644
-661	4090	-307	-317	-9062	699	-364	-26	54	851	61284	848	76758646
-674	4069	-330	-318	-9061	743	-364	-26	54	852	61380	849	76758647
-644	4066	-306	-319	-9060	720	-365	-11	51	853	61429	850	76758647
-662	4070	-313	-317	-9060	733	-365	-11	51	854	61525	851	76758685
-656	4076	-320	-323	-9062	744	-361	-27	47	855	61574	852	76758685
-657	4079	-300	-326	-9057	746	-361	-27	47	856	61670	853	76758687
-671	4076	-302	-321	-9059	746	-367	-25	45	857	61719	854	76758688
-656	4071	-317	-323	-9064	730	-367	-25	45	858	61815	855	76758689
-651	4079	-316	-320	-9060	719	-366	-26	44	859	61864	856	76758692
-660	4068	-317	-313	-9062	732	-366	-26	44	860	61960	857	76758693
-660	4071	-338	-314	-9062	746	-363	-23	33	861	62009	858	76758695
-670	4078	-323	-315	-9059	752	-363	-23	33	862	62105	859	76758710
-656	4053	-326	-321	-9061	734	-360	-24	36	863	62154	860	76758711
-664	4049	-329	-326	-9063	740	-360	-24	36	864	62250	861	76758714
-667	4079	-303	-318	-9070	735	-363	-29	33	865	62299	862	76758714
-675	4085	-302	-315	-9067	754	-363	-29	33	866	62395	863	76758716
-673	4071	-298	-317	-9069	734	-359	-27	25	867	62444	864	76758768
-667	4068	-327	-319	-9067	727	-359	-27	25	868	62540	865	76758777
-671	4077	-330	-320	-9060	724	-358	-18	32	869	62589	866	76758778
-653	4071	-344	-320	-9058	740	-358	-18	32	870	62685	867	76758779
-676	4069	-311	-321	-9057	733	-357	-21	17	871	62734	868	76758780
-683	4067	-328	-321	-9060	733	-357	-21	17	872	62830	869	76758781
-680	4076	-301	-321	-9063	747	-358	-28	14	873	62879	870	76758781
-687	4070	-318	-320	-9067	743	-358	-28	14	874	62975	871	76758782
-669	4075	-324	-318	-9067	752	-351	-25	19	875	63024	872	76758782
-679	4075	-323	-315	-9063	742	-351	-25	19	876	63120	873	76758794
-673	4083	-342	-316	-9063	732	-351	-25	7	877	63169	874	76758794
-661	4074	-322	-322	-9062	735	-351	-25	7	878	63265	875	76758796
-668	4083	-314	-323	-9057	722	-352	-24	12	879	63314	876	76758810
-668	4082	-319	-323	-9063	750	-352	-24	12	880	63410	877	76758811
-668	4075	-325	-322	-9063	731	-348	-26	-10	881	63459	878	76758814
-677	4074	-309	-314	-9065	724	-348	-26	-10	882	63555	879	76758814
-678	4069	-308	-313	-9068	731	-357	-15	-1	883	63604	880	76758816
-665	4080	-331	-318	-9068	736	-357	-15	-1	884	63700	881	76758818
-666	4088	-314	-321	-9067	754	-342	-26	-10	885	63749	882	76758818
-685	4057	-302	-324	-9064	737	-342	-26	-10	886	63845	883	76758835
-677	4069	-319	-324	-9066	758	-348	-24	-6	887	63894	884	76758835
-687	4083	-307	-323	-9069	732	-348	-24	-6	888	63990	885	76758838
-691	4075	-305	-320	-9068	736	-347	-23	-7	889	64039	886	76758839
-679	4063	-308	-312	-9064	725	-347	-23	-7	890	64135	887	76758839
-671	4073	-313	-317	-9062	728	-349	-17	-25	891	64184	888	76758859
-696	4081	-331	-318	-9072	726	-349	-17	-25	892	64280	889	76758859
-681	4074	-339	-323	-9072	722	-359	-19	-11	893	64329	890	76758861
-690	4076	-313	-322	-9066	760	-359	-19	-11	894	64425	891	76758863
-680	4064	-300	-323	-9062	756	-347	-17	-27	895	64474	892	76758863
-691	4071	-287	-320	-9064	725	-347	-17	-27	896	64571	893	76758884
-700	4072	-310	-319	-9068	718	-355	-9	-33	897	64620	894	76758884
-692	4108	-329	-320	-9068	731	-355	-9	-33	898	64716	895	76758886
-692	4092	-323	-324	-9068	737	-356	-12	-26	899	64765	896	76758888
-678	4045	-315	-316	-9066	743	-356	-12	-26	900	64861	897	76758889
-678	4000	-324	-313	-9062	728	-350	2	-46	901	64910	898	76758909
-722	4065	-321	-319	-9067	710	-350	2	-46	902	65006	899	76758909
-701	4143	-293	-333	-9061	744	-366	-6	-36	903	65055	900	76758913
-659	4145	-292	-340	-9069	745	-366	-6	-36	904	65151	901	76758913
-678	4067	-306	-321	-9068	742	-356	8	-52	905	65200	902	76758913
-692	3992	-312	-300	-9076	723	-356	8	-52	906	65296	903	76758920
-706	4023	-334	-299	-9073	706	-364	8	-54	907	65345	904	76758921
-715	4134	-358	-319	-9067	733	-364	8	-54	908	65441	905	76758934
-688	4154	-313	-346	-9066	761	-359	7	-31	909	65490	906	76758934
-674	4088	-279	-355	-9065	753	-359	7	-31	910	65586	907	76758940
-653	3983	-261	-322	-9071	720	-365	25	-55	911	65635	908	76758970
-698	3991	-312	-287	-9074	700	-365	25	-55	912	65731	909	76758970
-727	4074	-353	-291	-9071	718	-379	7	-31	913	65780	910	76758973
-717	4164	-338	-325	-9069	738	-379	7	-31	914	65876	911	76758973
-670	4130	-315	-346	-9062	753	-354	32	-42	915	65925	912	76758976
-659	4049	-263	-339	-9062	752	-354	32	-42	916	66021	913	76758977
-659	3982	-287	-313	-9064	716	-377	35	-41	917	66070	914	76758977
-708	4045	-345	-297	-9069	719	-377	35	-41	918	66166	915	76758980
-719	4113	-315	-316	-9063	726	-364	32	-26	919	66215	916	76758981
-714	4154	-322	-341	-9066	724	-364	32	-26	920	66311	917	76759000
-675	4069	-311	-338	-9067	770	-365	51	-37	921	66360	918	76759000
-680	4024	-281	-326	-9066	748	-365	51	-37	922	66457	919	76759002
-689	4036	-314	-301	-9069	710	-371	29	-27	923	66505	920	76759004
-698	4080	-327	-299	-9072	718	-371	29	-27	924	66601	921	76759004
-730	4125	-325	-320	-9062	727	-356	66	-16	925	66650	922	76759023
-695	4109	-311	-341	-9063	750	-356	66	-16	926	66746	923	76759023
-678	4039	-264	-336	-9063	742	-369	43	-23	927	66795	924	76759023
-679	4040	-275	-315	-9066	726	-369	43	-23	928	66891	925	76759032
-707	4077	-318	-299	-9072	726	-354	50	-12	929	66940	926	76759051
-700	4136	-336	-308	-9070	735	-354	50	-12	930	67036	927	76759082
-706	4111	-310	-324	-9065	761	-351	67	-11	931	67085	928	76759084
-683	4054	-304	-334	-9060	784	-351	67	-11	932	67181	929	76759084
-686	4008	-270	-333	-9060	741	-355	41	-15	933	67230	930	76759089
-688	4062	-278	-320	-9063	748	-355	41	-15	934	67326	931	76759090
-707	4094	-297	-312	-9059	730	-347	75	-1	935	67375	932	76759090
-697	4128	-335	-315	-9061	729	-347	75	-1	936	67471	933	76759091
-685	4077	-321	-320	-9064	729	-355	59	-19	937	67520	934	76759091
-707	4031	-316	-323	-9060	743	-355	59	-19	938	67616	935	76759092
-674	4055	-294	-316	-9058	731	-342	66	-8	939	67665	936	76759092
-696	4090	-317	-321	-9055	729	-342	66	-8	940	67761	937	76759093
-699	4117	-334	-327	-9059	725	-338	76	6	941	67810	938	76759094
-684	4034	-263	-324	-9061	749	-337	61	-3	943	67824	939	76759104
-695	4024	-300	-312	-9068	727	-337	61	-3	944	67920	940	76759121
-701	4071	-307	-307	-9071	727	-332	82	10	945	67969	941	76759131
-702	4124	-316	-316	-9069	767	-332	82	10	946	68065	942	76759132
-718	4093	-299	-328	-9064	732	-338	72	-4	947	68114	943	76759132
-686	4063	-287	-327	-9065	728	-338	72	-4	948	68210	944	76759132
-675	4045	-265	-319	-9064	732	-335	89	5	949	68259	945	76759146
-700	4051	-267	-318	-9067	707	-335	89	5	950	68355	946	76759148
-708	4102	-304	-315	-9070	723	-325	83	9	951	68404	947	76759149
-721	4103	-301	-314	-9067	720	-325	83	9	952	68501	948	76759149
-709	4077	-303	-322	-9067	729	-327	81	13	953	68550	949	76759149
-687	4077	-287	-321	-9069	740	-327	81	13	954	68646	950	76759167
-699	4054	-288	-318	-9069	738	-321	93	15	955	68695	951	76759167
-707	4072	-304	-315	-9068	732	-321	93	15	956	68791	952	76759170
-701	4089	-297	-322	-9072	736	-322	88	14	957	68840	953	76759176
-704	4088	-278	-323	-9069	753	-322	88	14	958	68936	954	76759176
-691	4061	-261	-319	-9072	762	-316	94	16	959	68985	955	76759192
-683	4069	-293	-314	-9075	716	-316	94	16	960	69081	956	76759192
-706	4092	-300	-314	-9075	734	-318	94	28	961	69130	957	76759194
-712	4098	-301	-322	-9071	728	-318	94	28	962	69226	958	76759200
-691	4096	-288	-327	-9067	753	-315	99	25	963	69275	959	76759200
-689	4074	-281	-331	-9065	757	-315	99	25	964	69371	960	76759217
-669	4064	-282	-320	-9066	757	-310	100	36	965	69420	961	76759217
-700	4072	-273	-316	-9071	718	-310	100	36	966	69516	962	76759221
-716	4095	-303	-313	-9076	756	-308	104	32	967	69565	963	76759221
-690	4079	-296	-312	-9074	717	-308	104	32	968	69661	964	76759221
-695	4075	-295	-321	-9073	755	-300	100	38	969	69710	965	76759242
-681	4048	-292	-326	-9074	765	-300	100	38	970	69806	966	76759242
-690	4078	-284	-325	-9066	750	-308	96	46	971	69855	967	76759246
-705	4093	-274	-323	-9071	745	-308	96	46	972	69951	968	76759246
-707	4093	-268	-319	-9074	718	-299	103	35	973	70000	969	76759249
-685	4066	-259	-320	-9075	712	-299	103	35	974	70096	970	76759267
-682	4066	-277	-316	-9078	694	-299	105	47	975	70145	971	76759267
-708	4076	-289	-314	-9076	722	-299	105	47	976	70241	972	76759271
-677	4084	-264	-315	-9079	720	-298	110	42	977	70290	973	76759271
-695	4099	-269	-320	-9076	740	-298	110	42	978	70386	974	76759275
-694	4098	-267	-326	-9077	731	-292	100	54	979	70435	975	76759292
-674	4071	-267	-324	-9078	742	-292	100	54	980	70532	976	76759292
-700	4058	-248	-319	-9075	731	-296	106	56	981	70580	977	76759296
-693	4056	-286	-313	-9077	751	-296	106	56	982	70676	978	76759297
-682	4089	-295	-315	-9080	760	-285	101	55	983	70725	979	76759300
-689	4070	-292	-320	-9076	749	-285	101	55	984	70821	980	76759316
-674	4081	-280	-324	-9073	744	-288	102	58	985	70870	981	76759316
-675	4064	-278	-324	-9070	767	-288	102	58	986	70966	982	76759320
-699	4072	-276	-327	-9072	739	-290	96	64	987	71015	983	76759321
-679	4093	-268	-320	-9074	737	-290	96	64	988	71111	984	76759323
-673	4095	-289	-319	-9077	749	-286	96	54	989	71160	985	76759349
-686	4072	-270	-322	-9074	745	-286	96	54	990	71256	986	76759350
-681	4078	-252	-317	-9075	737	-287	95	57	991	71305	987	76759350
-700	4081	-285	-316	-9074	749	-287	95	57	992	71401	988	76759350
-674	4081	-285	-319	-9076	749	-289	93	57	993	71450	989	76759350
-688	4095	-280	-323	-9074	727	-289	93	57	994	71546	990	76759366
-677	4096	-261	-327	-9074	740	-283	99	65	995	71595	991	76759373
-675	4087	-249	-322	-9079	751	-283	99	65	996	71691	992	76759373
-686	4069	-256	-320	-9080	750	-287	91	61	997	71740	993	76759373
-672	4062	-272	-316	-9084	726	-287	91	61	998	71836	994	76759391
-692	4097	-283	-313	-9077	730	-280	88	62	999	71885	995	76759391
-678	4082	-271	-323	-9074	758	-280	88	62	1000	71982	996	76759393
-676	4069	-277	-325	-9072	770	-285	83	61	1001	72030	997	76759394
-676	4046	-260	-327	-9075	733	-285	83	61	1002	72126	998	76759395
-681	4076	-248	-319	-9074	731	-283	79	61	1003	72175	999	76759443
-676	4095	-280	-311	-9077	710	-283	79	61	1004	72272	1000	76759443
-681	4106	-271	-326	-9073	729	-285	85	59	1005	72320	1001	76759446
-661	4073	-273	-325	-9072	723	-285	85	59	1006	72416	1002	76759447
-683	4066	-254	-318	-9078	725	-296	84	58	1007	72465	1003	76759447
-672	4064	-282	-312	-9072	708	-296	84	58	1008	72561	1004	76759451
-676	4086	-263	-315	-9070	736	-287	79	55	1009	72610	1005	76759451
-681	4096	-286	-329	-9071	723	-287	79	55	1010	72706	1006	76759453
-670	4086	-258	-333	-9070	736	-296	86	62	1011	72755	1007	76759467
-667	4054	-271	-328	-9068	747	-296	86	62	1012	72851	1008	76759468
-654	4060	-251	-312	-9079	733	-298	84	58	1013	72900	1009	76759469
-673	4093	-296	-303	-9077	722	-298	84	58	1014	72996	1010	76759470
-691	4112	-282	-314	-9070	727	-304	80	64	1015	73045	1011	76759476
-680	4090	-263	-327	-9069	731	-304	80	64	1016	73141	1012	76759476
-643	4060	-260	-335	-9069	741	-299	83	63	1017	73190	1013	76759478
-658	4059	-263	-327	-9070	758	-299	83	63	1018	73286	1014	76759491
-653	4070	-266	-314	-9071	742	-305	73	63	1019	73335	1015	76759491
-674	4088	-297	-307	-9071	710	-305	73	63	1020	73431	1016	76759494
-679	4092	-279	-321	-9070	733	-300	78	72	1021	73480	1017	76759495
-675	4075	-287	-323	-9070	743	-300	78	72	1022	73576	1018	76759497
-659	4076	-266	-328	-9064	718	-306	76	64	1023	73625	1019	76759516
-666	4070	-260	-319	-9065	722	-306	76	64	1024	73721	1020	76759517
-665	4081	-273	-315	-9069	727	-303	81	71	1025	73770	1021	76759520
-641	4087	-292	-320	-9070	740	-303	81	71	1026	73866	1022	76759521
-645	4073	-280	-321	-9072	719	-313	81	73	1027	73915	1023	76759522
-651	4079	-253	-324	-9067	725	-313	81	73	1028	74011	1024	76759543
-664	4058	-249	-318	-9067	734	-311	79	75	1029	74060	1025	76759543
-655	4088	-282	-315	-9063	701	-311	79	75	1030	74156	1026	76759546
-670	4095	-245	-318	-9063	720	-316	78	76	1031	74205	1027	76759547
-652	4076	-284	-321	-9065	760	-316	78	76	1032	74301	1028	76759549
-656	4070	-258	-327	-9066	742	-316	76	74	1033	74350	1029	76759566
-650	4056	-255	-324	-9067	708	-316	76	74	1034	74446	1030	76759566
-644	4068	-267	-315	-9065	733	-316	68	80	1035	74495	1031	76759570
-647	4094	-288	-316	-9069	733	-316	68	80	1036	74591	1032	76759570
-669	4082	-283	-314	-9071	733	-320	80	74	1037	74640	1033	76759572
-670	4078	-294	-317	-9069	742	-320	80	74	1038	74736	1034	76759594
-649	4074	-277	-323	-9065	726	-325	67	81	1039	74785	1035	76759594
-649	4077	-304	-320	-9068	711	-325	67	81	1040	74881	1036	76759597
-665	4079	-278	-320	-9065	724	-332	70	84	1041	74930	1037	76759598
-654	4079	-283	-319	-9063	714	-332	70	84	1042	75026	1038	76759602
-653	4063	-253	-323	-9066	727	-328	64	82	1043	75075	1039	76759603
-633	4070	-287	-322	-9067	727	-328	64	82	1044	75171	1040	76759622
-660	4065	-288	-314	-9069	707	-332	58	90	1045	75220	1041	76759623
-653	4077	-302	-313	-9069	722	-332	58	90	1046	75316	1042	76759624
-654	4093	-296	-316	-9064	734	-332	60	88	1047	75365	1043	76759642
-650	4075	-286	-321	-9062	720	-332	60	88	1048	75461	1044	76759642
-639	4065	-264	-326	-9066	733	-337	65	93	1049	75510	1045	76759644
-641	4070	-302	-319	-9060	773	-337	65	93	1050	75606	1046	76759646
-643	4086	-280	-318	-9067	758	-337	47	95	1051	75655	1047	76759646
-661	4070	-287	-319	-9064	740	-337	47	95	1052	75751	1048	76759651
-639	4071	-278	-319	-9060	738	-340	44	84	1053	75800	1049	76759657
-666	4076	-277	-323	-9060	712	-340	44	84	1054	75896	1050	76759668
-637	4075	-291	-324	-9058	726	-343	43	93	1055	75945	1051	76759672
-663	4079	-270	-324	-9057	751	-343	43	93	1056	76041	1052	76759673
-640	4095	-298	-320	-9065	718	-339	53	83	1057	76090	1053	76759678
-647	4085	-295	-314	-9065	720	-339	53	83	1058	76186	1054	76759678
-646	4064	-282	-319	-9066	710	-348	42	94	1059	76235	1055	76759694
-629	4050	-307	-316	-9065	724	-348	42	94	1060	76331	1056	76759695
-638	4079	-287	-315	-9065	734	-349	33	99	1061	76380	1057	76759696
-674	4074	-296	-320	-9060	707	-349	33	99	1062	76476	1058	76759703
-648	4077	-304	-321	-9061	742	-350	38	88	1063	76525	1059	76759703
-663	4080	-286	-324	-9064	750	-350	38	88	1064	76621	1060	76759719
-645	4081	-293	-324	-9063	743	-341	29	93	1065	76670	1061	76759720
-663	4070	-270	-317	-9065	723	-341	29	93	1066	76766	1062	76759720
-646	4053	-264	-317	-9066	716	-355	27	85	1067	76815	1063	76759727
-647	4085	-296	-315	-9069	755	-355	27	85	1068	76911	1064	76759727
-641	4063	-293	-316	-9071	735	-341	23	91	1069	76960	1065	76759729
-623	4064	-302	-320	-9062	738	-341	23	91	1070	77056	1066	76759741
-646	4065	-299	-322	-9060	739	-354	16	92	1071	77105	1067	76759741
-634	4077	-325	-319	-9063	758	-354	16	92	1072	77201	1068	76759777
-654	4065	-312	-313	-9062	739	-357	19	93	1073	77250	1069	76759777
-644	4076	-310	-320	-9061	727	-357	19	93	1074	77346	1070	76759781
-657	4076	-284	-314	-9062	730	-358	12	88	1075	77395	1071	76759781
-668	4077	-299	-319	-9062	744	-358	12	88	1076	77491	1072	76759783
-660	4069	-298	-326	-9064	739	-361	13	83	1077	77540	1073	76759785
-656	4065	-297	-325	-9059	752	-361	13	83	1078	77636	1074	76759785
-651	4069	-300	-323	-9056	722	-358	10	78	1079	77685	1075	76759788
-661	4070	-289	-322	-9061	719	-358	10	78	1080	77781	1076	76759789
-639	4078	-277	-315	-9062	728	-366	10	82	1081	77830	1077	76759791
-652	4071	-302	-316	-9066	751	-366	10	82	1082	77926	1078	76759803
-637	4096	-317	-318	-9063	746	-357	1	85	1083	77975	1079	76759803
-649	4080	-315	-320	-9064	739	-357	1	85	1084	78071	1080	76759813
-652	4078	-311	-320	-9066	738	-354	2	72	1085	78120	1081	76759813
-666	4097	-324	-321	-9061	755	-354	2	72	1086	78216	1082	76759827
-645	4099	-318	-320	-9062	725	-360	-8	74	1087	78265	1083	76759829
-639	4069	-326	-320	-9064	727	-360	-8	74	1088	78361	1084	76759829
-647	4065	-311	-318	-9061	737	-364	2	66	1089	78410	1085	76759838
-655	4071	-310	-321	-9061	725	-364	2	66	1090	78506	1086	76759838
-650	4067	-339	-315	-9064	730	-360	-16	72	1091	78555	1087	76759840
-641	4062	-292	-317	-9059	735	-360	-16	72	1092	78651	1088	76759853
-647	4075	-318	-323	-9056	735	-374	-10	76	1093	78700	1089	76759854
-664	4067	-298	-323	-9059	728	-374	-10	76	1094	78796	1090	76759864
-637	4076	-292	-320	-9061	733	-366	-4	64	1095	78845	1091	76759865
-648	4063	-312	-315	-9058	731	-366	-4	64	1096	78941	1092	76759889
-657	4078	-332	-315	-9059	761	-363	-13	63	1097	78990	1093	76759890
-657	4062	-331	-319	-9056	732	-363	-13	63	1098	79086	1094	76759891
-651	4057	-323	-320	-9058	738	-373	-19	53	1099	79135	1095	76759892
-644	4069	-322	-322	-9059	742	-373	-19	53	1100	79231	1096	76759893
-666	4061	-326	-320	-9058	730	-366	-14	60	1101	79280	1097	76759904
-644	4081	-295	-318	-9060	708	-366	-14	60	1102	79376	1098	76759904
-650	4083	-296	-321	-9058	749	-372	-12	60	1103	79425	1099	76759906
-638	4066	-310	-323	-9060	739	-372	-12	60	1104	79521	1100	76759911
-644	4077	-296	-319	-9063	716	-364	-16	58	1105	79570	1101	76759911
-665	4069	-326	-318	-9067	737	-364	-16	58	1106	79666	1102	76759930
-643	4061	-312	-316	-9063	742	-361	-17	51	1107	79715	1103	76759930
-662	4077	-337	-319	-9058	737	-361	-17	51	1108	79811	1104	76759932
-638	4074	-330	-326	-9061	718	-367	-23	53	1109	79860	1105	76759937
-662	4068	-318	-325	-9060	737	-367	-23	53	1110	79956	1106	76759938
-655	4071	-312	-322	-9062	738	-369	-27	45	1111	80005	1107	76759952
-655	4056	-315	-313	-9065	743	-369	-27	45	1112	80101	1108	76759952
-658	4078	-313	-316	-9059	732	-372	-22	52	1113	80150	1109	76759954
-667	4070	-336	-320	-9060	703	-372	-22	52	1114	80246	1110	76759961
-636	4068	-306	-324	-9059	700	-363	-17	43	1115	80295	1111	76759961
-672	4075	-329	-327	-9059	740	-363	-17	43	1116	80391	1112	76759977
-666	4074	-325	-325	-9060	745	-362	-34	44	1117	80440	1113	76759977
-661	4084	-291	-324	-9057	744	-362	-34	44	1118	80536	1114	76759979
-649	4077	-290	-321	-9064	741	-364	-26	34	1119	80585	1115	76759987
-676	4085	-328	-317	-9063	729	-364	-26	34	1120	80681	1116	76759988
-661	4084	-316	-315	-9062	741	-359	-29	37	1121	80730	1117	76760002
-672	4075	-341	-315	-9064	742	-359	-29	37	1122	80826	1118	76760003
-642	4062	-335	-321	-9061	724	-363	-21	43	1123	80875	1119	76760005
-675	4070	-311	-325	-9063	731	-363	-21	43	1124	80971	1120	76760010
-653	4084	-304	-324	-9060	738	-364	-22	26	1125	81020	1121	76760011
-679	4077	-297	-320	-9061	741	-364	-22	26	1126	81117	1122	76760028
-666	4088	-327	-319	-9058	705	-351	-23	25	1127	81165	1123	76760028
-664	4073	-324	-313	-9066	744	-351	-23	25	1128	81261	1124	76760032
-663	4075	-337	-314	-9067	736	-365	-25	21	1129	81310	1125	76760033
-678	4075	-323	-319	-9065	737	-365	-25	21	1130	81406	1126	76760036
-670	4076	-333	-324	-9062	756	-352	-34	18	1131	81455	1127	76760079
-665	4078	-314	-324	-9065	732	-352	-34	18	1132	81551	1128	76760079
-679	4086	-305	-320	-9067	719	-363	-31	9	1133	81600	1129	76760083
-667	4075	-299	-319	-9067	743	-363	-31	9	1134	81697	1130	76760083
-676	4075	-305	-316	-9062	750	-348	-28	8	1135	81745	1131	76760088
-680	4091	-321	-310	-9060	737	-348	-28	8	1136	81841	1132	76760089
-667	4059	-310	-316	-9065	730	-356	-26	8	1137	81890	1133	76760090
-672	4084	-335	-319	-9063	722	-356	-26	8	1138	81986	1134	76760109
-662	4070	-335	-324	-9064	725	-351	-27	5	1139	82035	1135	76760109
-653	4082	-310	-323	-9064	728	-351	-27	5	1140	82131	1136	76760111
-682	4078	-284	-319	-9063	741	-349	-25	-5	1141	82180	1137	76760111
-691	4076	-323	-321	-9069	737	-349	-25	-5	1142	82276	1138	76760113
-681	4075	-297	-316	-9067	736	-351	-17	-1	1143	82325	1139	76760130
-662	4055	-332	-315	-9069	724	-351	-17	-1	1144	82421	1140	76760130
-660	4098	-302	-319	-9068	702	-353	-23	-11	1145	82470	1141	76760132
-681	4093	-324	-321	-9064	721	-353	-23	-11	1146	82566	1142	76760134
-664	4066	-330	-324	-9062	744	-350	-18	-12	1147	82615	1143	76760136
-697	4071	-326	-326	-9064	734	-350	-18	-12	1148	82711	1144	76760154
-680	4074	-321	-320	-9060	749	-354	-20	-16	1149	82760	1145	76760154
-690	4084	-321	-319	-9063	752	-354	-20	-16	1150	82856	1146	76760156
-670	4089	-297	-314	-9066	747	-339	-15	-23	1151	82905	1147	76760157
-695	4072	-312	-315	-9067	740	-339	-15	-23	1152	83001	1148	76760158
-666	4080	-353	-319	-9066	707	-352	-10	-22	1153	83050	1149	76760162
-695	4072	-317	-323	-9065	713	-352	-10	-22	1154	83146	1150	76760163
-671	4075	-305	-322	-9065	751	-346	-10	-30	1155	83195	1151	76760177
-692	4078	-318	-321	-9071	750	-346	-10	-30	1156	83291	1152	76760178
-664	4086	-322	-323	-9063	761	-354	-6	-30	1157	83340	1153	76760182
-701	4077	-311	-318	-9065	739	-354	-6	-30	1158	83436	1154	76760184
-695	4072	-332	-315	-9068	733	-363	-13	-35	1159	83485	1155	76760184
-678	4067	-329	-315	-9065	717	-363	-13	-35	1160	83581	1156	76760205
-688	4082	-309	-317	-9062	736	-344	-6	-42	1161	83630	1157	76760207
-661	4089	-344	-329	-9062	726	-344	-6	-42	1162	83726	1158	76760208
-678	4066	-287	-328	-9065	752	-363	7	-43	1163	83775	1159	76760208
-679	4063	-308	-324	-9066	747	-363	7	-43	1164	83871	1160	76760209
-690	4055	-314	-317	-9065	736	-355	1	-39	1165	83920	1161	76760227
-670	4071	-307	-315	-9066	732	-355	1	-39	1166	84016	1162	76760227
-691	4089	-302	-318	-9064	723	-363	23	-57	1167	84065	1163	76760231
-691	4085	-338	-319	-9064	738	-363	23	-57	1168	84161	1164	76760232
-699	4079	-312	-324	-9067	732	-369	7	-35	1169	84210	1165	76760232
-687	4060	-306	-325	-9067	727	-369	7	-35	1170	84307	1166	76760253
-716	4080	-289	-324	-9066	741	-359	21	-43	1171	84356	1167	76760254
-706	4056	-285	-320	-9067	747	-359	21	-43	1172	84452	1168	76760256
-707	4091	-313	-319	-9064	752	-374	22	-42	1173	84501	1169	76760257
-689	4081	-301	-316	-9066	727	-374	22	-42	1174	84597	1170	76760257
-702	4086	-313	-319	-9066	750	-366	28	-30	1175	84646	1171	76760277
-703	4085	-337	-321	-9068	760	-366	28	-30	1176	84742	1172	76760277
-685	4060	-304	-324	-9063	764	-367	41	-43	1177	84791	1173	76760279
-696	4044	-298	-319	-9062	734	-367	41	-43	1178	84887	1174	76760281
-704	4048	-276	-319	-9064	734	-375	25	-31	1179	84936	1175	76760281
-680	4108	-326	-331	-9061	743	-375	25	-31	1180	85032	1176	76760302
-685	4111	-303	-331	-9066	748	-357	45	-31	1181	85081	1177	76760303
-689	4079	-279	-320	-9066	744	-357	45	-31	1182	85177	1178	76760306
-695	4022	-301	-304	-9064	689	-371	41	-33	1183	85226	1179	76760306
-725	4023	-321	-299	-9067	717	-371	41	-33	1184	85322	1180	76760308
-708	4110	-309	-322	-9064	766	-351	53	-11	1185	85371	1181	76760328
-707	4147	-287	-346	-9061	753	-351	53	-11	1186	85467	1182	76760328
-663	4106	-270	-347	-9062	775	-353	61	-17	1187	85516	1183	76760331
-666	4020	-287	-321	-9068	732	-353	61	-17	1188	85612	1184	76760331
-693	4010	-289	-290	-9072	694	-356	48	-12	1189	85661	1185	76760333
-723	4083	-345	-291	-9071	702	-356	48	-12	1190	85757	1186	76760353
-708	4149	-369	-326	-9068	737	-350	64	2	1191	85806	1187	76760353
-692	4131	-316	-352	-9059	760	-350	64	2	1192	85902	1188	76760356
-665	4060	-282	-343	-9060	743	-353	51	-17	1193	85951	1189	76760356
-682	3997	-249	-314	-9065	731	-353	51	-17	1194	86047	1190	76760360
-712	4041	-298	-299	-9067	724	-331	65	-3	1195	86096	1191	76760378
-716	4119	-352	-306	-9066	714	-331	65	-3	1196	86192	1192	76760378
-708	4137	-319	-332	-9064	722	-338	66	2	1197	86241	1193	76760382
-672	4095	-295	-332	-9065	753	-338	66	2	1198	86337	1194	76760382
-681	4036	-260	-322	-9060	738	-335	69	-9	1199	86386	1195	76760406
-670	4025	-295	-306	-9060	719	-335	69	-9	1200	86482	1196	76760407
-724	4078	-309	-307	-9064	713	-337	79	5	1201	86531	1197	76760408
-685	4122	-320	-321	-9064	723	-337	79	5	1202	86627	1198	76760409
-693	4109	-308	-338	-9061	733	-340	72	-2	1203	86676	1199	76760410
-705	4067	-266	-334	-9061	772	-340	72	-2	1204	86772	1200	76760413
-674	4040	-261	-322	-9063	727	-321	77	1	1205	86821	1201	76760414
-697	4072	-305	-307	-9060	716	-321	77	1	1206	86917	1202	76760430
-708	4117	-320	-310	-9061	719	-325	75	15	1207	86966	1203	76760437
-709	4090	-329	-322	-9062	712	-325	75	15	1208	87062	1204	76760438
-679	4063	-285	-332	-9062	742	-321	85	5	1209	87111	1205	76760439
-698	4067	-259	-334	-9059	738	-321	85	5	1210	87207	1206	76760439
-691	4084	-254	-323	-9060	737	-323	95	13	1211	87256	1207	76760454
-716	4092	-296	-309	-9069	717	-323	95	13	1212	87352	1208	76760455
-714	4090	-296	-306	-9073	728	-329	81	15	1213	87401	1209	76760456
-735	4060	-320	-313	-9067	723	-329	81	15	1214	87497	1210	76760464
-697	4080	-316	-326	-9064	737	-319	103	13	1215	87546	1211	76760464
-683	4073	-288	-341	-9064	744	-319	103	13	1216	87642	1212	76760466
-680	4077	-254	-340	-9063	715	-313	87	27	1217	87691	1213	76760478
-702	4058	-275	-320	-9064	741	-313	87	27	1218	87787	1214	76760478
-678	4053	-302	-302	-9071	728	-316	100	10	1219	87836	1215	76760514
-702	4083	-310	-308	-9068	714	-316	100	10	1220	87932	1216	76760514
-696	4103	-272	-331	-9066	748	-303	97	23	1222	87946	1217	76760518
-685	4084	-272	-324	-9067	745	-313	99	19	1223	87995	1218	76760520
-693	4057	-275	-311	-9066	730	-313	99	19	1224	88091	1219	76760522
-710	4062	-295	-316	-9071	700	-315	107	31	1225	88140	1220	76760522
-683	4088	-284	-324	-9071	728	-315	107	31	1226	88236	1221	76760525
-688	4095	-285	-329	-9070	746	-306	90	40	1227	88285	1222	76760526
-688	4087	-264	-324	-9070	751	-306	90	40	1228	88381	1223	76760533
-710	4057	-271	-311	-9072	735	-302	100	44	1229	88430	1224	76760560
-696	4061	-285	-310	-9072	724	-302	100	44	1230	88526	1225	76760561
-708	4081	-277	-318	-9073	722	-297	103	41	1231	88575	1226	76760564
-691	4085	-285	-328	-9072	762	-297	103	41	1232	88671	1227	76760564
-682	4096	-255	-333	-9070	748	-302	106	40	1233	88720	1228	76760566
-699	4078	-254	-324	-9068	748	-302	106	40	1234	88816	1229	76760568
-689	4062	-264	-311	-9074	738	-302	110	46	1235	88865	1230	76760568
-713	4093	-294	-306	-9072	713	-302	110	46	1236	88961	1231	76760573
-702	4085	-301	-315	-9071	717	-289	101	53	1237	89010	1232	76760573
-701	4095	-286	-325	-9071	740	-289	101	53	1238	89106	1233	76760576
-686	4077	-256	-331	-9072	743	-292	100	58	1239	89155	1234	76760631
-675	4052	-279	-329	-9070	726	-292	100	58	1240	89251	1235	76760644
-687	4059	-276	-320	-9080	724	-286	100	64	1241	89300	1236	76760677
-684	4072	-280	-313	-9079	702	-286	100	64	1242	89396	1237	76760691
-697	4075	-280	-317	-9075	718	-296	98	54	1243	89445	1238	76760693
-711	4085	-287	-317	-9080	724	-296	98	54	1244	89541	1239	76760697
-685	4082	-264	-327	-9076	747	-283	97	55	1245	89590	1240	76760697
-696	4080	-273	-321	-9078	740	-283	97	55	1246	89686	1241	76760698
-691	4059	-258	-314	-9074	757	-289	97	61	1247	89735	1242	76760698
-706	4077	-273	-316	-9073	755	-289	97	61	1248	89831	1243	76760698
-680	4089	-270	-324	-9073	733	-283	99	67	1249	89880	1244	76760699
-701	4089	-273	-327	-9070	730	-283	99	67	1250	89976	1245	76760699
-668	4074	-287	-325	-9076	738	-283	91	51	1251	90025	1246	76760699
-662	4077	-270	-315	-9075	735	-283	91	51	1252	90121	1247	76760700
-688	4077	-278	-311	-9070	702	-293	93	57	1253	90170	1248	76760700
-711	4084	-285	-316	-9071	732	-293	93	57	1254	90266	1249	76760700
-677	4084	-272	-325	-9074	733	-282	100	58	1255	90315	1250	76760704
-671	4079	-265	-334	-9075	723	-282	100	58	1256	90411	1251	76760704
-655	4061	-279	-325	-9074	745	-293	83	61	1257	90460	1252	76760705
-685	4077	-264	-315	-9076	763	-293	83	61	1258	90556	1253	76760724
-691	4079	-284	-311	-9081	740	-283	87	63	1259	90605	1254	76760725
-674	4068	-305	-312	-9076	730	-283	87	63	1260	90701	1255	76760727
-692	4078	-269	-323	-9073	752	-289	81	71	1261	90750	1256	76760728
-678	4072	-270	-327	-9075	746	-289	81	71	1262	90846	1257	76760729
-666	4089	-255	-327	-9075	744	-292	80	56	1263	90895	1258	76760732
-696	4083	-285	-319	-9072	755	-292	80	56	1264	90991	1259	76760732
-658	4087	-286	-316	-9078	746	-295	91	57	1265	91040	1260	76760734
-691	4086	-263	-320	-9075	726	-295	91	57	1266	91136	1261	76760747
-669	4061	-262	-319	-9074	718	-292	80	50	1267	91185	1262	76760747
-680	4063	-260	-321	-9073	741	-292	80	50	1268	91281	1263	76760753
-682	4082	-269	-322	-9070	734	-288	90	62	1269	91330	1264	76760754
-668	4065	-279	-316	-9069	745	-288	90	62	1270	91426	1265	76760756
-656	4076	-250	-321	-9071	719	-296	84	68	1271	91475	1266	76760757
-670	4078	-279	-321	-9071	713	-296	84	68	1272	91571	1267	76760758
-657	4091	-257	-322	-9074	741	-300	82	64	1273	91620	1268	76760771
-677	4089	-262	-321	-9074	749	-300	82	64	1274	91716	1269	76760771
-653	4087	-294	-319	-9067	740	-292	74	62	1275	91765	1270	76760774
-687	4086	-300	-318	-9069	746	-292	74	62	1276	91861	1271	76760775
-677	4081	-288	-317	-9069	718	-298	76	64	1277	91910	1272	76760777
-677	4065	-277	-319	-9068	765	-298	76	64	1278	92006	1273	76760798
-656	4062	-260	-319	-9072	732	-304	84	68	1279	92055	1274	76760798
-678	4078	-278	-324	-9065	748	-304	84	68	1280	92151	1275	76760803
-667	4084	-267	-321	-9073	710	-307	77	67	1281	92200	1276	76760804
-660	4070	-258	-316	-9078	727	-307	77	67	1282	92296	1277	76760804
-670	4094	-259	-315	-9072	718	-313	77	63	1283	92345	1278	76760826
-664	4076	-285	-322	-9070	743	-313	77	63	1284	92441	1279	76760827
-673	4090	-279	-318	-9066	741	-308	82	78	1285	92490	1280	76760828
-656	4072	-305	-324	-9064	737	-308	82	78	1286	92586	1281	76760828
-665	4072	-257	-324	-9063	739	-314	80	68	1287	92635	1282	76760830
-647	4045	-298	-319	-9066	734	-314	80	68	1288	92731	1283	76760848
-657	4070	-284	-317	-9069	737	-305	75	73	1289	92780	1284	76760848
-653	4083	-279	-313	-9062	741	-305	75	73	1290	92876	1285	76760851
-666	4066	-295	-317	-9063	732	-311	71	81	1291	92925	1286	76760852
-653	4068	-290	-322	-9062	742	-311	71	81	1292	93021	1287	76760854
-663	4072	-281	-321	-9060	723	-316	74	74	1293	93070	1288	76760871
-667	4079	-295	-326	-9062	723	-316	74	74	1294	93166	1289	76760872
-673	4055	-266	-320	-9067	732	-319	67	79	1295	93215	1290	76760894
-647	4066	-282	-320	-9067	735	-319	67	79	1296	93312	1291	76760896
-659	4082	-297	-317	-9065	721	-322	72	78	1297	93360	1292	76760897
-655	4065	-289	-314	-9067	730	-322	72	78	1298	93456	1293	76760898
-648	4090	-283	-318	-9066	750	-318	70	88	1299	93505	1294	76760899
-653	4089	-285	-317	-9063	754	-318	70	88	1300	93601	1295	76760900
-651	4067	-287	-321	-9063	753	-329	59	85	1301	93650	1296	76760900
-660	4072	-284	-322	-9066	743	-329	59	85	1302	93746	1297	76760903
-649	4063	-297	-317	-9066	720	-335	63	85	1303	93795	1298	76760921
-645	4086	-274	-318	-9067	753	-335	63	85	1304	93891	1299	76760921
-663	4087	-290	-315	-9067	731	-335	63	91	1305	93940	1300	76760925
-635	4084	-299	-315	-9071	718	-335	63	91	1306	94036	1301	76760925
-664	4079	-281	-320	-9062	719	-330	52	86	1307	94085	1302	76760928
-663	4071	-305	-316	-9062	736	-330	52	86	1308	94181	1303	76760929
-652	4078	-293	-321	-9064	724	-325	63	87	1309	94230	1304	76760932
-652	4079	-289	-316	-9066	727	-325	63	87	1310	94326	1305	76760946
-646	4087	-292	-313	-9068	703	-340	50	84	1311	94375	1306	76760946
-657	4058	-293	-317	-9067	724	-340	50	84	1312	94471	1307	76760955
-662	4075	-282	-316	-9067	749	-346	50	96	1313	94520	1308	76760955
-657	4072	-297	-315	-9061	723	-346	50	96	1314	94616	1309	76760971
-665	4105	-297	-323	-9058	700	-341	49	93	1315	94665	1310	76760972
-662	4097	-273	-323	-9060	739	-341	49	93	1316	94761	1311	76760973
-639	4069	-284	-329	-9059	734	-338	50	86	1317	94810	1312	76760980
-632	4061	-303	-325	-9059	731	-338	50	86	1318	94906	1313	76760980
-652	4066	-298	-318	-9060	749	-339	45	93	1319	94955	1314	76760996
-621	4084	-293	-316	-9063	718	-339	45	93	1320	95051	1315	76760998
-664	4081	-268	-316	-9060	733	-347	35	93	1321	95100	1316	76760998
-649	4066	-288	-323	-9056	735	-347	35	93	1322	95196	1317	76761005
-659	4060	-301	-326	-9060	736	-352	22	92	1323	95245	1318	76761007
-632	4078	-302	-322	-9057	730	-352	22	92	1324	95341	1319	76761021
-635	4077	-296	-317	-9061	725	-346	28	94	1325	95390	1320	76761022
-657	4081	-275	-316	-9062	703	-346	28	94	1326	95486	1321	76761023
-644	4074	-316	-321	-9067	729	-352	22	92	1327	95535	1322	76761030
-652	4077	-266	-322	-9066	731	-352	22	92	1328	95631	1323	76761030
-643	4066	-307	-320	-9066	717	-344	22	90	1329	95680	1324	76761046
-643	4074	-315	-318	-9062	721	-344	22	90	1330	95776	1325	76761047
-652	4086	-298	-318	-9061	724	-359	25	89	1331	95825	1326	76761048
-665	4069	-296	-323	-9061	736	-359	25	89	1332	95921	1327	76761055
-644	4080	-292	-326	-9066	748	-348	12	90	1333	95970	1328	76761056
-665	4081	-300	-320	-9067	753	-348	12	90	1334	96067	1329	76761071
-639	4069	-285	-321	-9073	751	-358	12	96	1335	96115	1330	76761072
-627	4064	-312	-312	-9068	711	-358	12	96	1336	96211	1331	76761073
-654	4074	-304	-315	-9067	745	-359	5	83	1337	96260	1332	76761080
-641	4064	-295	-322	-9059	738	-359	5	83	1338	96356	1333	76761081
-661	4086	-311	-322	-9057	699	-356	6	78	1339	96405	1334	76761096
-637	4090	-305	-323	-9057	727	-356	6	78	1340	96501	1335	76761098
-634	4072	-293	-322	-9062	730	-359	9	81	1341	96550	1336	76761100
-653	4078	-326	-316	-9063	731	-359	9	81	1342	96646	1337	76761106
-643	4070	-311	-316	-9060	730	-357	1	73	1343	96695	1338	76761107
-649	4072	-327	-318	-9059	727	-357	1	73	1344	96791	1339	76761123
-630	4084	-315	-318	-9062	722	-365	-5	79	1345	96840	1340	76761124
-672	4067	-322	-323	-9058	734	-365	-5	79	1346	96936	1341	76761125
-639	4069	-304	-322	-9058	766	-359	-3	75	1347	96985	1342	76761130
-657	4064	-265	-324	-9059	769	-359	-3	75	1348	97081	1343	76761131
-667	4083	-290	-317	-9063	736	-368	-6	72	1349	97130	1344	76761149
-648	4080	-302	-317	-9062	735	-368	-6	72	1350	97226	1345	76761150
-656	4072	-306	-315	-9064	759	-364	-10	64	1351	97275	1346	76761153
-644	4080	-326	-319	-9062	742	-364	-10	64	1352	97371	1347	76761154
-651	4079	-301	-325	-9058	732	-365	-11	65	1353	97420	1348	76761154
-652	4074	-288	-323	-9058	711	-365	-11	65	1354	97516	1349	76761174
-656	4060	-311	-321	-9060	696	-359	-17	69	1355	97565	1350	76761174
-663	4073	-294	-321	-9059	695	-359	-17	69	1356	97661	1351	76761176
-639	4082	-323	-316	-9063	726	-364	-16	62	1357	97710	1352	76761178
-654	4081	-315	-320	-9063	737	-364	-16	62	1358	97806	1353	76761178
-664	4072	-295	-319	-9059	735	-368	-10	62	1359	97855	1354	76761198
-657	4074	-331	-315	-9058	757	-368	-10	62	1360	97951	1355	76761198
-652	4085	-291	-321	-9058	745	-368	-20	60	1361	98000	1356	76761200
-670	4072	-315	-323	-9056	727	-368	-20	60	1362	98096	1357	76761203
-661	4080	-323	-322	-9056	731	-363	-21	53	1363	98145	1358	76761203
-649	4069	-309	-320	-9062	746	-363	-21	53	1364	98241	1359	76761222
-657	4068	-315	-314	-9059	745	-368	-24	60	1365	98290	1360	76761223
-679	4074	-298	-315	-9062	715	-368	-24	60	1366	98386	1361	76761226
-670	4086	-317	-319	-9065	717	-368	-22	40	1367	98435	1362	76761226
-650	4077	-344	-322	-9060	729	-368	-22	40	1368	98531	1363	76761230
-647	4066	-323	-324	-9062	729	-368	-24	48	1369	98580	1364	76761248
-667	4076	-317	-324	-9062	744	-368	-24	48	1370	98676	1365	76761248
-664	4079	-302	-321	-9059	738	-364	-22	52	1371	98725	1366	76761251
-655	4062	-320	-316	-9060	737	-364	-22	52	1372	98821	1367	76761252
-662	4079	-338	-317	-9065	711	-371	-19	37	1373	98870	1368	76761255
-657	4092	-336	-317	-9062	741	-371	-19	37	1374	98966	1369	76761273
-664	4081	-303	-318	-9060	760	-366	-20	50	1375	99015	1370	76761273
-648	4073	-315	-322	-9064	750	-366	-20	50	1376	99111	1371	76761277
-659	4057	-303	-322	-9062	746	-358	-22	36	1377	99160	1372	76761277
-673	4063	-305	-316	-9063	700	-358	-22	36	1378	99256	1373	76761280
-676	4074	-301	-318	-9063	711	-363	-25	43	1379	99305	1374	76761298
-665	4067	-327	-317	-9063	734	-363	-25	43	1380	99401	1375	76761298
-669	4055	-332	-315	-9065	748	-358	-28	34	1381	99450	1376	76761301
-655	4074	-309	-315	-9065	735	-358	-28	34	1382	99546	1377	76761302
-666	4066	-328	-317	-9060	724	-363	-25	29	1383	99595	1378	76761304
-667	4080	-330	-323	-9059	734	-363	-25	29	1384	99691	1379	76761323
-655	4075	-307	-327	-9054	746	-363	-25	35	1385	99740	1380	76761324
-657	4074	-327	-325	-9061	752	-363	-25	35	1386	99836	1381	76761327
-673	4074	-284	-323	-9062	732	-352	-26	24	1387	99885	1382	76761328
-681	4073	-315	-320	-9068	718	-352	-26	24	1388	99981	1383	76761355
-675	4082	-338	-314	-9065	711	-357	-27	21	1389	100030	1384	76761356
-668	4061	-337	-317	-9062	727	-357	-27	21	1390	100126	1385	76761357
-665	4068	-309	-318	-9065	739	-359	-17	9	1391	100175	1386	76761374
-679	4074	-334	-328	-9066	730	-359	-17	9	1392	100272	1387	76761375
-662	4063	-303	-327	-9068	749	-347	-25	9	1393	100320	1388	76761376
-678	4055	-307	-321	-9069	722	-347	-25	9	1394	100416	1389	76761378
-679	4087	-319	-321	-9071	736	-359	-23	9	1395	100465	1390	76761379
-674	4087	-326	-318	-9067	724	-359	-23	9	1396	100561	1391	76761382
-684	4082	-336	-317	-9066	735	-353	-27	5	1397	100610	1392	76761382
-666	4065	-325	-319	-9066	695	-353	-27	5	1398	100706	1393	76761384
-685	4071	-347	-324	-9062	720	-353	-27	7	1399	100755	1394	76761398
-681	4079	-322	-326	-9065	738	-353	-27	7	1400	100851	1395	76761399
-670	4091	-309	-323	-9065	723	-348	-28	0	1401	100900	1396	76761401
-686	4078	-299	-322	-9069	723	-348	-28	0	1402	100996	1397	76761402
-686	4081	-338	-321	-9067	737	-353	-27	-5	1403	101045	1398	76761422
-685	4072	-323	-314	-9072	743	-353	-27	-5	1404	101141	1399	76761422
-688	4056	-330	-315	-9067	738	-350	-20	-6	1405	101190	1400	76761424
-700	4074	-346	-316	-9068	749	-350	-20	-6	1406	101286	1401	76761425
-689	4091	-332	-323	-9069	752	-343	-19	-19	1407	101335	1402	76761426
-658	4079	-331	-330	-9067	746	-343	-19	-19	1408	101431	1403	76761446
-684	4066	-311	-325	-9060	741	-345	-21	-19	1409	101480	1404	76761447
-675	4067	-296	-323	-9066	727	-345	-21	-19	1410	101576	1405	76761449
-678	4092	-308	-318	-9069	735	-351	-19	-21	1411	101625	1406	76761450
-662	4056	-352	-311	-9067	733	-351	-19	-21	1412	101722	1407	76761451
-681	4080	-305	-316	-9070	714	-354	-14	-32	1413	101770	1408	76761472
-700	4072	-326	-317	-9072	721	-354	-14	-32	1414	101866	1409	76761474
-662	4060	-314	-323	-9065	753	-354	-18	-26	1415	101915	1410	76761475
-689	4067	-323	-324	-9065	739	-354	-18	-26	1416	102011	1411	76761476
-690	4064	-299	-323	-9066	727	-344	-4	-44	1417	102060	1412	76761479
-682	4097	-313	-321	-9071	715	-344	-4	-44	1418	102156	1413	76761497
-702	4061	-312	-318	-9072	720	-360	-2	-38	1419	102205	1414	76761498
-691	4076	-320	-315	-9071	724	-360	-2	-38	1420	102301	1415	76761499
-694	4061	-287	-319	-9071	720	-353	-1	-43	1421	102350	1416	76761500
-662	4075	-305	-323	-9071	737	-353	-1	-43	1422	102446	1417	76761501
-690	4071	-333	-324	-9064	734	-361	5	-57	1423	102495	1418	76761522
-667	4072	-286	-324	-9065	737	-361	5	-57	1424	102591	1419	76761523
-679	4076	-298	-322	-9064	738	-362	4	-30	1425	102640	1420	76761524
-704	4071	-318	-317	-9068	741	-362	4	-30	1426	102737	1421	76761525
-699	4073	-329	-316	-9067	740	-350	26	-50	1427	102785	1422	76761526
-704	4070	-349	-316	-9071	735	-350	26	-50	1428	102881	1423	76761546
-693	4068	-321	-320	-9067	718	-373	17	-43	1429	102930	1424	76761547
-682	4081	-338	-321	-9066	745	-373	17	-43	1430	103026	1425	76761550
-684	4092	-289	-328	-9069	729	-362	24	-34	1431	103075	1426	76761550
-702	4080	-320	-324	-9066	736	-362	24	-34	1432	103171	1427	76761552
-680	4073	-327	-322	-9068	754	-375	41	-53	1433	103220	1428	76761574
-705	4076	-305	-317	-9069	761	-375	41	-53	1434	103316	1429	76761574
-682	4074	-310	-314	-9073	740	-371	21	-23	1435	103365	1430	76761577
-705	4077	-328	-317	-9072	709	-371	21	-23	1436	103461	1431	76761578
-693	4076	-297	-317	-9064	704	-363	39	-31	1437	103510	1432	76761580
-677	4070	-313	-322	-9067	736	-363	39	-31	1438	103606	1433	76761599
-697	4066	-307	-324	-9069	725	-367	31	-37	1439	103655	1434	76761600
-702	4059	-290	-323	-9071	728	-367	31	-37	1440	103751	1435	76761603
-683	4066	-313	-320	-9068	725	-345	45	-9	1441	103800	1436	76761603
-696	4085	-310	-319	-9069	710	-345	45	-9	1442	103896	1437	76761605
-705	4091	-316	-317	-9070	727	-364	54	-32	1443	103945	1438	76761624
-690	4071	-315	-318	-9070	746	-364	54	-32	1444	104041	1439	76761625
-701	4077	-304	-319	-9067	735	-355	39	-15	1445	104090	1440	76761628
-693	4081	-305	-325	-9065	712	-355	39	-15	1446	104186	1441	76761628
-697	4070	-289	-328	-9066	739	-352	70	-12	1447	104235	1442	76761630
-667	4070	-301	-325	-9066	728	-352	70	-12	1448	104331	1443	76761649
-697	4078	-298	-324	-9068	717	-355	47	-19	1449	104380	1444	76761649
-690	4074	-289	-312	-9066	732	-355	47	-19	1450	104476	1445	76761652
-690	4074	-323	-315	-9069	732	-333	63	3	1451	104525	1446	76761653
-704	4080	-311	-317	-9066	718	-333	63	3	1452	104621	1447	76761655
-693	4076	-308	-324	-9068	718	-348	74	-8	1453	104670	1448	76761673
-700	4099	-267	-330	-9066	731	-348	74	-8	1454	104766	1449	76761673
-700	4061	-307	-325	-9068	741	-345	61	-1	1455	104815	1450	76761676
-680	4071	-294	-324	-9069	760	-345	61	-1	1456	104911	1451	76761677
-710	4070	-289	-319	-9071	724	-338	72	-2	1457	104960	1452	76761681
-696	4063	-313	-312	-9064	723	-338	72	-2	1458	105056	1453	76761682
-702	4090	-325	-316	-9067	733	-338	64	-10	1459	105105	1454	76761697
-708	4067	-300	-322	-9063	706	-338	64	-10	1460	105201	1455	76761699
-701	4073	-293	-326	-9067	736	-336	78	8	1461	105250	1456	76761699
-702	4065	-251	-326	-9061	744	-336	78	8	1462	105346	1457	76761706
-681	4074	-288	-322	-9066	735	-327	75	-1	1463	105395	1458	76761707
-698	4078	-305	-322	-9068	745	-327	75	-1	1464	105491	1459	76761722
-699	4084	-309	-314	-9065	700	-328	82	2	1465	105540	1460	76761724
-713	4083	-309	-318	-9062	727	-328	82	2	1466	105636	1461	76761724
-702	4066	-315	-319	-9067	747	-326	84	4	1467	105685	1462	76761731
-692	4073	-307	-327	-9063	745	-326	84	4	1468	105781	1463	76761732
-687	4075	-270	-323	-9059	719	-326	84	4	1469	105830	1464	76761750
-691	4079	-288	-324	-9064	745	-326	84	4	1470	105926	1465	76761751
-698	4075	-276	-325	-9064	739	-321	91	13	1471	105975	1466	76761752
-691	4080	-271	-324	-9061	738	-321	91	13	1472	106071	1467	76761755
-705	4068	-286	-314	-9068	719	-322	92	18	1473	106120	1468	76761756
-723	4072	-282	-317	-9067	746	-322	92	18	1474	106216	1469	76761772
-713	4081	-271	-317	-9064	723	-319	97	17	1475	106265	1470	76761774
-710	4077	-290	-319	-9065	737	-319	97	17	1476	106361	1471	76761774
-695	4082	-299	-329	-9066	748	-313	99	27	1477	106410	1472	76761781
-710	4077	-269	-329	-9067	744	-313	99	27	1478	106506	1473	76761782
-690	4086	-282	-323	-9066	733	-310	98	22	1479	106555	1474	76761797
-693	4078	-299	-316	-9070	729	-310	98	22	1480	106651	1475	76761799
-689	4053	-281	-312	-9071	729	-312	104	28	1481	106700	1476	76761800
-700	4085	-280	-316	-9071	736	-312	104	28	1482	106796	1477	76761807
-699	4084	-297	-317	-9069	737	-311	97	31	1483	106845	1478	76761808
-712	4080	-296	-322	-9068	732	-311	97	31	1484	106941	1479	76761809
-701	4072	-299	-323	-9068	718	-309	107	35	1485	106990	1480	76761822
-708	4072	-284	-320	-9073	712	-309	107	35	1486	107086	1481	76761824
-689	4086	-278	-322	-9072	727	-300	110	42	1487	107135	1482	76761832
-696	4083	-293	-321	-9070	712	-300	110	42	1488	107231	1483	76761832
-691	4076	-286	-315	-9070	722	-308	98	42	1489	107280	1484	76761846
-677	4063	-284	-318	-9070	735	-308	98	42	1490	107376	1485	76761847
-710	4080	-285	-321	-9070	720	-304	98	48	1491	107425	1486	76761848
-683	4065	-291	-318	-9069	707	-304	98	48	1492	107521	1487	76761857
-684	4081	-277	-324	-9068	733	-295	97	53	1493	107570	1488	76761857
-701	4090	-270	-323	-9072	751	-295	97	53	1494	107666	1489	76761871
-694	4087	-269	-321	-9077	734	-290	98	52	1495	107715	1490	76761872
-692	4078	-267	-318	-9076	734	-290	98	52	1496	107811	1491	76761873
-701	4080	-289	-314	-9074	726	-289	103	51	1497	107860	1492	76761881
-708	4088	-278	-320	-9074	718	-289	103	51	1498	107956	1493	76761881
-691	4064	-289	-318	-9074	735	-292	102	46	1499	108005	1494	76761896
-690	4055	-284	-326	-9071	745	-292	102	46	1500	108101	1495	76761897
-696	4071	-251	-327	-9072	757	-287	103	61	1501	108150	1496	76761899
-676	4059	-257	-324	-9069	739	-287	103	61	1502	108246	1497	76761907
-699	4079	-268	-319	-9080	745	-288	98	54	1503	108295	1498	76761907
-686	4085	-272	-315	-9076	734	-288	98	54	1504	108391	1499	76761922
-698	4089	-278	-316	-9078	743	-288	98	58	1505	108440	1500	76761922
-708	4077	-276	-320	-9077	716	-288	98	58	1506	108536	1501	76761924
-673	4068	-262	-322	-9079	745	-285	99	57	1507	108585	1502	76761932
-689	4082	-290	-322	-9073	739	-285	99	57	1508	108681	1503	76761933
-662	4081	-258	-324	-9074	719	-287	89	59	1509	108730	1504	76761947
-679	4085	-293	-319	-9078	739	-287	89	59	1510	108826	1505	76761948
-692	4048	-252	-321	-9080	719	-278	94	62	1511	108875	1506	76761950
-652	4064	-277	-319	-9078	718	-278	94	62	1512	108971	1507	76761955
-680	4063	-303	-318	-9077	712	-291	91	65	1513	109020	1508	76761956
-687	4070	-278	-318	-9079	737	-291	91	65	1514	109116	1509	76761998
-677	4063	-266	-327	-9076	746	-290	84	66	1515	109165	1510	76761998
-676	4070	-278	-328	-9072	742	-290	84	66	1516	109261	1511	76762000
-691	4067	-276	-325	-9074	740	-281	91	61	1517	109310	1512	76762001
-677	4069	-277	-322	-9080	739	-281	91	61	1518	109406	1513	76762002
-670	4077	-262	-326	-9080	738	-286	80	62	1519	109455	1514	76762005
-672	4081	-293	-319	-9078	752	-286	80	62	1520	109551	1515	76762005
-693	4079	-266	-318	-9078	742	-286	80	54	1521	109600	1516	76762022
-675	4082	-281	-319	-9077	723	-286	80	54	1522	109696	1517	76762023
-657	4075	-265	-323	-9075	754	-290	80	56	1523	109745	1518	76762024
-673	4089	-279	-325	-9074	733	-290	80	56	1524	109841	1519	76762026
-673	4075	-245	-320	-9076	750	-289	81	65	1525	109890	1520	76762026
-675	4085	-278	-321	-9075	751	-289	81	65	1526	109986	1521	76762030
-664	4080	-268	-318	-9075	732	-292	86	62	1527	110035	1522	76762030
-688	4081	-287	-313	-9077	717	-292	86	62	1528	110131	1523	76762032
-662	4074	-293	-321	-9077	733	-290	78	60	1529	110180	1524	76762048
-666	4088	-291	-324	-9073	739	-290	78	60	1530	110276	1525	76762049
-665	4069	-270	-323	-9073	752	-302	80	58	1531	110325	1526	76762052
-673	4087	-282	-325	-9069	744	-302	80	58	1532	110421	1527	76762052
-676	4092	-268	-318	-9075	736	-303	79	59	1533	110470	1528	76762054
-658	4084	-283	-320	-9072	743	-303	79	59	1534	110566	1529	76762071
-675	4069	-270	-317	-9077	719	-306	78	72	1535	110615	1530	76762071
-660	4079	-298	-313	-9074	712	-306	78	72	1536	110711	1531	76762075
-667	4069	-271	-322	-9077	728	-304	84	58	1537	110760	1532	76762075
-674	4064	-269	-321	-9071	765	-304	84	58	1538	110856	1533	76762081
-670	4075	-264	-324	-9074	740	-306	70	72	1539	110905	1534	76762115
-673	4077	-257	-324	-9072	732	-306	70	72	1540	111001	1535	76762115
-659	4077	-255	-316	-9073	744	-307	75	73	1541	111050	1536	76762118
-661	4085	-280	-317	-9072	739	-307	75	73	1542	111146	1537	76762119
-661	4083	-279	-317	-9074	706	-311	79	69	1543	111195	1538	76762121
-648	4069	-270	-317	-9072	715	-311	79	69	1544	111291	1539	76762122
-673	4079	-286	-320	-9074	722	-314	76	66	1545	111340	1540	76762122
-656	4060	-277	-321	-9069	757	-314	76	66	1546	111436	1541	76762126
-648	4080	-278	-322	-9074	731	-318	76	74	1547	111485	1542	76762126
-667	4074	-276	-317	-9069	734	-318	76	74	1548	111581	1543	76762128
-660	4062	-280	-315	-9071	712	-322	76	84	1549	111630	1544	76762140
-673	4071	-282	-316	-9070	717	-322	76	84	1550	111726	1545	76762140
-653	4082	-295	-313	-9073	743	-315	79	79	1551	111775	1546	76762175
-665	4069	-291	-316	-9069	750	-315	79	79	1552	111871	1547	76762175
-653	4086	-294	-320	-9064	741	-326	70	84	1553	111920	1548	76762177
-675	4082	-292	-323	-9066	734	-326	70	84	1554	112016	1549	76762178
-662	4078	-253	-326	-9061	755	-325	79	75	1555	112065	1550	76762178
-644	4069	-266	-320	-9063	745	-325	79	75	1556	112161	1551	76762182
-653	4058	-274	-313	-9066	753	-329	69	79	1557	112210	1552	76762182
-663	4082	-289	-313	-9070	711	-329	69	79	1558	112306	1553	76762186
-660	4091	-286	-315	-9071	731	-327	65	83	1559	112355	1554	76762186
-644	4060	-278	-327	-9067	724	-327	65	83	1560	112452	1555	76762189
-640	4051	-262	-327	-9063	715	-334	60	90	1561	112500	1556	76762208
-642	4065	-276	-315	-9067	733	-334	60	90	1562	112596	1557	76762208
-670	4099	-299	-312	-9067	724	-324	62	88	1563	112645	1558	76762211
-676	4096	-295	-316	-9068	729	-324	62	88	1564	112741	1559	76762212
-627	4080	-272	-328	-9070	732	-333	61	85	1565	112790	1560	76762214
-630	4036	-264	-328	-9067	729	-333	61	85	1566	112886	1561	76762237
-637	4048	-263	-321	-9066	714	-338	58	86	1567	112935	1562	76762237
-667	4089	-297	-308	-9068	711	-338	58	86	1568	113031	1563	76762238
-647	4094	-297	-314	-9066	742	-334	52	90	1569	113080	1564	76762238
-659	4093	-278	-334	-9068	758	-334	52	90	1570	113176	1565	76762239
-649	4057	-245	-335	-9065	744	-344	50	82	1571	113225	1566	76762256
-649	4050	-254	-317	-9069	748	-344	50	82	1572	113321	1567	76762256
-652	4079	-318	-304	-9071	743	-338	50	84	1573	113370	1568	76762261
-677	4105	-345	-301	-9064	745	-338	50	84	1574	113466	1569	76762261
-652	4090	-312	-321	-9061	736	-344	44	86	1575	113515	1570	76762281
-645	4077	-286	-338	-9062	750	-344	44	86	1576	113611	1571	76762282
-629	4073	-259	-330	-9063	761	-344	36	94	1577	113660	1572	76762283
-632	4054	-283	-316	-9066	728	-344	36	94	1578	113756	1573	76762284
-653	4083	-305	-305	-9065	725	-348	40	94	1579	113805	1574	76762285
-644	4113	-306	-320	-9064	723	-348	40	94	1580	113901	1575	76762306
-653	4078	-293	-328	-9063	724	-347	25	95	1581	113950	1576	76762308
-636	4046	-292	-329	-9061	743	-347	25	95	1582	114046	1577	76762308
-625	4061	-274	-318	-9060	759	-347	27	91	1583	114095	1578	76762310
-669	4078	-296	-311	-9057	724	-347	27	91	1584	114191	1579	76762310
-662	4076	-294	-314	-9061	736	-351	29	83	1585	114240	1580	76762331
-650	4084	-289	-324	-9065	725	-351	29	83	1586	114336	1581	76762331
-649	4068	-292	-330	-9062	726	-354	20	90	1587	114385	1582	76762334
-634	4079	-290	-320	-9067	750	-354	20	90	1588	114481	1583	76762336
-657	4071	-290	-310	-9068	726	-356	16	92	1589	114530	1584	76762336
-656	4076	-308	-309	-9069	711	-356	16	92	1590	114626	1585	76762356
-654	4071	-288	-325	-9065	724	-348	16	92	1591	114675	1586	76762357
-646	4088	-281	-330	-9063	728	-348	16	92	1592	114771	1587	76762359
-653	4063	-264	-328	-9068	736	-354	18	86	1593	114820	1588	76762360
-647	4069	-284	-315	-9066	731	-354	18	86	1594	114916	1589	76762360
-653	4077	-307	-312	-9069	714	-357	11	81	1595	114965	1590	76762381
-670	4074	-324	-315	-9069	734	-357	11	81	1596	115061	1591	76762381
-641	4082	-301	-317	-9070	724	-359	5	83	1597	115110	1592	76762385
-652	4078	-300	-319	-9066	742	-359	5	83	1598	115206	1593	76762385
-665	4083	-313	-320	-9063	762	-353	3	77	1599	115255	1594	76762387
-650	4070	-312	-318	-9063	728	-353	3	77	1600	115352	1595	76762406
-638	4082	-304	-320	-9063	715	-358	8	82	1601	115401	1596	76762437
-659	4077	-310	-318	-9063	773	-358	8	82	1602	115497	1597	76762444
-645	4076	-303	-318	-9059	744	-362	-2	80	1603	115546	1598	76762444
-651	4081	-295	-318	-9066	719	-362	-2	80	1604	115642	1599	76762445
-648	4072	-305	-315	-9063	742	-366	6	78	1605	115691	1600	76762446
-658	4097	-306	-323	-9063	763	-366	6	78	1606	115787	1601	76762446
-661	4087	-294	-323	-9062	741	-365	-3	73	1607	115836	1602	76762447
-666	4063	-304	-326	-9061	740	-365	-3	73	1608	115932	1603	76762448
-649	4074	-312	-322	-9063	729	-364	-4	72	1609	115981	1604	76762449
-657	4067	-313	-317	-9064	721	-364	-4	72	1610	116077	1605	76762456
-642	4079	-326	-316	-9062	725	-363	-17	71	1611	116126	1606	76762456
-669	4073	-335	-315	-9063	732	-363	-17	71	1612	116222	1607	76762459
-653	4051	-330	-316	-9061	742	-359	-17	71	1613	116271	1608	76762459
-649	4077	-318	-317	-9063	716	-359	-17	71	1614	116367	1609	76762461
-666	4066	-302	-316	-9064	751	-365	-17	67	1615	116416	1610	76762480
-659	4087	-302	-319	-9063	746	-365	-17	67	1616	116512	1611	76762481
-642	4082	-304	-323	-9057	719	-371	-15	63	1617	116561	1612	76762484
-655	4065	-315	-319	-9061	728	-371	-15	63	1618	116657	1613	76762484
-649	4059	-328	-315	-9067	737	-366	-14	56	1619	116706	1614	76762486
-656	4080	-329	-310	-9062	747	-366	-14	56	1620	116802	1615	76762505
-657	4078	-303	-317	-9058	737	-363	-19	61	1621	116851	1616	76762506
-659	4076	-338	-323	-9060	731	-363	-19	61	1622	116947	1617	76762509
-665	4071	-318	-325	-9061	727	-368	-24	56	1623	116996	1618	76762509
-659	4083	-323	-323	-9063	755	-368	-24	56	1624	117092	1619	76762530
-654	4071	-315	-316	-9063	720	-366	-18	54	1625	117141	1620	76762531
-667	4067	-312	-313	-9066	731	-366	-18	54	1626	117237	1621	76762533
-670	4064	-320	-318	-9062	766	-365	-25	55	1627	117286	1622	76762534
-646	4076	-338	-318	-9064	755	-365	-25	55	1628	117382	1623	76762534
-659	4076	-321	-325	-9063	732	-368	-22	42	1629	117431	1624	76762556
-635	4084	-333	-326	-9060	747	-368	-22	42	1630	117528	1625	76762557
-672	4058	-324	-320	-9062	753	-363	-25	41	1631	117576	1626	76762558
-665	4073	-310	-319	-9062	730	-363	-25	41	1632	117672	1627	76762559
-651	4073	-287	-314	-9063	739	-363	-25	43	1633	117721	1628	76762560
-689	4072	-330	-315	-9065	724	-363	-25	43	1634	117817	1629	76762580
-682	4076	-313	-319	-9065	723	-365	-33	45	1635	117866	1630	76762581
-655	4080	-312	-319	-9066	735	-365	-33	45	1636	117962	1631	76762583
-668	4079	-327	-322	-9063	735	-355	-33	39	1637	118011	1632	76762584
-670	4082	-322	-319	-9064	751	-355	-33	39	1638	118107	1633	76762584
-671	4077	-328	-318	-9061	732	-359	-27	23	1639	118156	1634	76762605
-672	4075	-311	-322	-9062	742	-359	-27	23	1640	118252	1635	76762606
-646	4072	-299	-320	-9061	720	-354	-28	38	1641	118301	1636	76762608
-663	4075	-309	-317	-9063	740	-354	-28	38	1642	118397	1637	76762636
-658	4061	-330	-317	-9061	718	-355	-23	27	1643	118446	1638	76762636
-649	4061	-312	-318	-9063	717	-355	-23	27	1644	118542	1639	76762639
-670	4067	-305	-322	-9061	726	-362	-30	24	1645	118591	1640	76762640
-679	4076	-314	-321	-9066	732	-362	-30	24	1646	118687	1641	76762641
-664	4084	-328	-321	-9064	737	-357	-21	19	1647	118736	1642	76762657
-678	4070	-288	-320	-9063	768	-357	-21	19	1648	118832	1643	76762657
-671	4071	-318	-316	-9064	741	-362	-16	10	1649	118881	1644	76762660
-699	4079	-333	-315	-9064	729	-362	-16	10	1650	118977	1645	76762661
-677	4075	-339	-318	-9065	733	-349	-21	15	1651	119026	1646	76762663
-676	4091	-352	-322	-9066	744	-349	-21	15	1652	119122	1647	76762664
-682	4064	-288	-327	-9064	742	-354	-30	4	1653	119171	1648	76762664
-675	4049	-314	-325	-9066	738	-354	-30	4	1654	119267	1649	76762683
-655	4073	-286	-317	-9072	752	-348	-20	2	1655	119316	1650	76762685
-695	4082	-294	-313	-9069	739	-348	-20	2	1656	119412	1651	76762687
-698	4075	-330	-314	-9068	708	-350	-34	4	1657	119461	1652	76762689
-693	4078	-337	-315	-9067	756	-350	-34	4	1658	119557	1653	76762690
-674	4075	-333	-317	-9071	734	-352	-24	-14	1659	119606	1654	76762708
-663	4079	-317	-320	-9073	760	-352	-24	-14	1660	119702	1655	76762708
-700	4070	-324	-320	-9065	733	-343	-23	5	1661	119751	1656	76762711
-670	4073	-302	-318	-9064	751	-343	-23	5	1662	119847	1657	76762712
-690	4082	-323	-325	-9067	728	-343	-23	-15	1663	119896	1658	76762714
-697	4088	-325	-321	-9067	724	-343	-23	-15	1664	119992	1659	76762716
-671	4081	-323	-318	-9068	745	-357	-17	-15	1665	120041	1660	76762717
-678	4088	-335	-316	-9069	723	-357	-17	-15	1666	120137	1661	76762731
-673	4077	-331	-316	-9064	710	-343	-21	-19	1667	120186	1662	76762732
-685	4065	-326	-320	-9065	714	-343	-21	-19	1668	120282	1663	76762734
-686	4075	-313	-322	-9069	739	-346	-12	-28	1669	120331	1664	76762767
-684	4072	-307	-322	-9067	735	-346	-12	-28	1670	120427	1665	76762768
-679	4070	-319	-318	-9063	726	-350	-18	-20	1671	120476	1666	76762770
-692	4074	-324	-313	-9066	711	-350	-18	-20	1672	120572	1667	76762770
-669	4084	-328	-313	-9066	714	-349	-5	-39	1673	120621	1668	76762772
-705	4095	-329	-318	-9066	740	-349	-5	-39	1674	120717	1669	76762774
-684	4066	-339	-317	-9063	742	-362	-6	-28	1675	120766	1670	76762774
-701	4067	-314	-325	-9067	736	-362	-6	-28	1676	120862	1671	76762778
-674	4075	-303	-328	-9066	741	-352	-4	-40	1677	120911	1672	76762778
-684	4061	-319	-324	-9065	721	-352	-4	-40	1678	121007	1673	76762781
-689	4060	-303	-317	-9065	745	-357	1	-45	1679	121056	1674	76762804
-670	4069	-353	-311	-9067	735	-357	1	-45	1680	121152	1675	76762805
-689	4074	-333	-312	-9063	747	-361	3	-31	1681	121201	1676	76762808
-706	4084	-331	-322	-9068	748	-361	3	-31	1682	121298	1677	76762808
-691	4084	-315	-324	-9064	725	-355	21	-53	1683	121346	1678	76762810
-671	4073	-318	-322	-9067	710	-355	21	-53	1684	121442	1679	76762825
-682	4078	-294	-322	-9066	728	-379	7	-39	1685	121491	1680	76762826
-693	4092	-312	-318	-9068	746	-379	7	-39	1686	121587	1681	76762829
-702	4065	-337	-318	-9070	734	-366	12	-40	1687	121636	1682	76762829
-700	4073	-326	-315	-9072	714	-366	12	-40	1688	121733	1683	76762839
-690	4072	-334	-316	-9066	733	-367	25	-53	1689	121782	1684	76762839
-701	4077	-327	-319	-9067	739	-367	25	-53	1690	121878	1685	76762843
-694	4070	-323	-320	-9071	746	-364	22	-26	1691	121927	1686	76762865
-676	4054	-309	-320	-9068	742	-364	22	-26	1692	122023	1687	76762866
-690	4064	-315	-321	-9063	751	-367	45	-37	1693	122072	1688	76762869
-700	4072	-296	-322	-9068	748	-367	45	-37	1694	122168	1689	76762870
-704	4087	-296	-314	-9074	742	-374	24	-38	1695	122217	1690	76762871
-676	4070	-292	-313	-9068	739	-374	24	-38	1696	122313	1691	76762887
-704	4085	-307	-315	-9070	714	-351	45	-17	1697	122362	1692	76762888
-700	4065	-308	-317	-9068	723	-351	45	-17	1698	122458	1693	76762891
-687	4075	-320	-326	-9066	737	-368	42	-28	1699	122507	1694	76762892
-685	4081	-309	-327	-9068	720	-368	42	-28	1700	122603	1695	76762893
-707	4072	-292	-325	-9071	724	-362	40	-16	1701	122652	1696	76762928
-689	4083	-307	-318	-9077	748	-362	40	-16	1702	122748	1697	76762929
-691	4079	-312	-308	-9074	735	-348	58	-16	1703	122797	1698	76762931
-704	4076	-304	-314	-9071	724	-348	58	-16	1704	122893	1699	76762932
-709	4075	-310	-321	-9075	737	-360	46	-24	1705	122942	1700	76762934
-697	4073	-311	-320	-9067	731	-360	46	-24	1706	123039	1701	76762935
-686	4054	-288	-327	-9063	734	-346	70	0	1707	123087	1702	76762936
-693	4078	-308	-326	-9063	743	-346	70	0	1708	123184	1703	76762952
-698	4070	-286	-320	-9065	750	-357	65	-13	1709	123232	1704	76762952
-709	4068	-306	-314	-9068	715	-357	65	-13	1710	123328	1705	76762954
-684	4076	-316	-312	-9066	725	-339	53	-7	1711	123377	1706	76762955
-716	4073	-290	-315	-9068	719	-339	53	-7	1712	123473	1707	76762956
-684	4083	-306	-316	-9068	723	-344	72	-8	1713	123522	1708	76762977
-692	4081	-299	-323	-9063	752	-344	72	-8	1714	123618	1709	76762977
-714	4074	-292	-324	-9063	729	-343	59	-5	1715	123667	1710	76762979
-688	4077	-286	-324	-9064	735	-343	59	-5	1716	123763	1711	76762980
-696	4071	-302	-319	-9064	721	-332	78	8	1717	123812	1712	76762981
-687	4065	-308	-312	-9069	739	-332	78	8	1718	123908	1713	76763002
-721	4075	-279	-312	-9065	747	-342	64	6	1719	123957	1714	76763003
-687	4080	-321	-315	-9065	710	-342	64	6	1720	124053	1715	76763005
-687	4083	-310	-317	-9064	735	-330	76	10	1721	124102	1716	76763006
-693	4069	-296	-324	-9063	726	-330	76	10	1722	124198	1717	76763008
-705	4056	-273	-328	-9066	723	-332	88	8	1723	124247	1718	76763028
-700	4078	-290	-319	-9067	738	-332	88	8	1724	124343	1719	76763029
-705	4078	-295	-320	-9065	750	-333	71	9	1725	124392	1720	76763030
-683	4077	-297	-316	-9069	732	-333	71	9	1726	124488	1721	76763031
-695	4082	-287	-315	-9068	702	-324	102	10	1727	124537	1722	76763032
-708	4083	-307	-321	-9068	722	-324	102	10	1728	124633	1723	76763038
-707	4044	-304	-320	-9065	739	-320	82	18	1729	124682	1724	76763040
-697	4047	-301	-316	-9063	713	-320	82	18	1730	124778	1725	76763051
-714	4073	-288	-319	-9060	738	-321	93	19	1731	124827	1726	76763052
-701	4094	-298	-327	-9058	741	-321	93	19	1732	124923	1727	76763054
-694	4101	-272	-331	-9060	722	-319	105	19	1733	124972	1728	76763086
-680	4046	-269	-316	-9064	722	-319	105	19	1734	125068	1729	76763087
-693	4032	-326	-303	-9065	707	-317	85	21	1735	125117	1730	76763090
-711	4065	-301	-307	-9063	712	-317	85	21	1736	125213	1731	76763092
-690	4135	-300	-324	-9060	728	-315	103	29	1737	125262	1732	76763092
-690	4139	-298	-344	-9059	739	-315	103	29	1738	125358	1733	76763094
-671	4060	-227	-339	-9064	713	-321	97	27	1739	125407	1734	76763095
-694	4012	-241	-313	-9071	716	-321	97	27	1740	125503	1735	76763098
-711	4040	-289	-290	-9072	684	-313	103	27	1741	125552	1736	76763098
-701	4131	-324	-302	-9070	704	-313	103	27	1742	125648	1737	76763120
-708	4125	-310	-335	-9065	760	-305	107	41	1743	125697	1738	76763120
-664	4097	-290	-344	-9064	751	-305	107	41	1744	125793	1739	76763122
-673	4041	-277	-329	-9065	754	-309	101	41	1745	125842	1740	76763124
-694	4043	-271	-312	-9062	713	-309	101	41	1746	125938	1741	76763124
-705	4101	-291	-301	-9070	719	-303	111	43	1747	125987	1742	76763144
-723	4118	-283	-316	-9069	745	-303	111	43	1748	126083	1743	76763144
-691	4094	-279	-336	-9069	736	-308	106	40	1749	126132	1744	76763146
-687	4061	-245	-332	-9065	765	-308	106	40	1750	126228	1745	76763148
-659	4039	-272	-316	-9066	742	-299	105	45	1751	126277	1746	76763148
-680	4070	-288	-299	-9070	700	-299	105	45	1752	126373	1747	76763168
-728	4106	-313	-308	-9064	729	-302	100	50	1753	126422	1748	76763170
-713	4109	-276	-330	-9067	764	-302	100	50	1754	126518	1749	76763171
-672	4068	-255	-340	-9062	764	-288	104	54	1755	126567	1750	76763171
-664	4056	-235	-327	-9068	762	-288	104	54	1756	126663	1751	76763171
-675	4057	-282	-314	-9070	762	-293	101	49	1757	126712	1752	76763192
-705	4073	-296	-299	-9074	726	-293	101	49	1758	126808	1753	76763193
-705	4114	-322	-305	-9070	747	-285	101	61	1759	126857	1754	76763196
-706	4088	-268	-323	-9069	743	-285	101	61	1760	126953	1755	76763196
-669	4081	-280	-335	-9064	738	-289	101	57	1761	127002	1756	76763198
-672	4064	-258	-333	-9069	746	-289	101	57	1762	127098	1757	76763222
-692	4069	-251	-320	-9071	721	-283	97	59	1763	127147	1758	76763247
-695	4090	-270	-303	-9072	720	-283	97	59	1764	127243	1759	76763257
-713	4084	-282	-307	-9074	720	-286	96	66	1765	127292	1760	76763272
-696	4080	-291	-321	-9071	738	-286	96	66	1766	127388	1761	76763274
-678	4080	-274	-333	-9071	728	-285	93	59	1767	127437	1762	76763275
-668	4058	-276	-331	-9067	734	-285	93	59	1768	127533	1763	76763294
-688	4045	-265	-320	-9067	749	-285	91	63	1769	127582	1764	76763308
-699	4069	-276	-310	-9073	733	-285	91	63	1770	127678	1765	76763329
-674	4101	-289	-312	-9072	756	-283	97	55	1771	127727	1766	76763332
-677	4102	-272	-324	-9074	738	-283	97	55	1772	127823	1767	76763357
-658	4052	-258	-328	-9076	744	-292	86	58	1773	127872	1768	76763358
-670	4054	-274	-316	-9076	738	-292	86	58	1774	127968	1769	76763359
-677	4057	-303	-304	-9073	722	-284	86	58	1775	128017	1770	76763359
-694	4103	-301	-304	-9073	732	-284	86	58	1776	128113	1771	76763360
-707	4111	-291	-325	-9073	728	-290	88	58	1777	128162	1772	76763360
-658	4074	-278	-336	-9071	752	-290	88	58	1778	128258	1773	76763361
-678	4050	-255	-327	-9074	757	-285	81	63	1779	128307	1774	76763361
-658	4060	-248	-309	-9076	749	-285	81	63	1780	128403	1775	76763362
-670	4079	-296	-303	-9076	718	-293	91	63	1781	128452	1776	76763362
-689	4102	-306	-311	-9074	727	-293	91	63	1782	128548	1777	76763363
-684	4090	-286	-331	-9071	730	-289	81	69	1783	128597	1778	76763363
-668	4071	-251	-335	-9067	733	-289	81	69	1784	128693	1779	76763364
-658	4065	-244	-326	-9068	734	-289	83	65	1785	128742	1780	76763364
-682	4048	-263	-312	-9068	734	-289	83	65	1786	128838	1781	76763365
-702	4088	-292	-310	-9071	751	-296	82	62	1787	128887	1782	76763365
-691	4082	-289	-314	-9075	715	-296	82	62	1788	128983	1783	76763366
-691	4085	-305	-323	-9072	740	-293	79	69	1789	129032	1784	76763376
-674	4046	-283	-328	-9069	745	-293	79	69	1790	129128	1785	76763377
-661	4057	-263	-319	-9069	725	-299	83	55	1791	129177	1786	76763378
-660	4078	-263	-312	-9065	714	-299	83	55	1792	129273	1787	76763379
-675	4094	-289	-319	-9069	725	-294	80	62	1793	129322	1788	76763379
-690	4087	-273	-321	-9069	738	-294	80	62	1794	129418	1789	76763380
-672	4054	-261	-329	-9072	745	-303	83	71	1795	129467	1790	76763380
-661	4079	-269	-323	-9069	757	-303	83	71	1796	129563	1791	76763380
-649	4074	-275	-318	-9066	729	-304	78	64	1797	129612	1792	76763381
-674	4089	-296	-317	-9068	748	-304	78	64	1798	129708	1793	76763392
-660	4076	-291	-322	-9063	724	-312	70	76	1799	129757	1794	76763394
-658	4065	-281	-331	-9067	724	-312	70	76	1800	129853	1795	76763394
-668	4067	-264	-326	-9065	739	-314	82	72	1801	129902	1796	76763429
-662	4083	-271	-316	-9070	740	-314	82	72	1802	129998	1797	76763430
-666	4073	-255	-306	-9070	751	-312	72	64	1803	130047	1798	76763432
-670	4087	-288	-310	-9072	722	-312	72	64	1804	130143	1799	76763434
-672	4077	-278	-320	-9067	755	-315	77	71	1805	130192	1800	76763434
-649	4065	-275	-325	-9067	742	-315	77	71	1806	130288	1801	76763436
-660	4083	-275	-321	-9066	742	-316	74	78	1807	130337	1802	76763436
-656	4085	-298	-317	-9065	722	-316	74	78	1808	130433	1803	76763440
-663	4098	-287	-315	-9065	729	-315	73	73	1809	130482	1804	76763440
-654	4089	-281	-319	-9069	718	-315	73	73	1810	130578	1805	76763443
-663	4092	-282	-320	-9070	731	-319	69	85	1811	130627	1806	76763459
-646	4080	-280	-316	-9072	743	-319	69	85	1812	130723	1807	76763459
-660	4062	-287	-318	-9069	710	-326	72	82	1813	130772	1808	76763463
-648	4080	-269	-321	-9066	715	-326	72	82	1814	130868	1809	76763464
-665	4093	-280	-323	-9069	726	-331	77	73	1815	130917	1810	76763467
-667	4085	-246	-323	-9064	744	-331	77	73	1816	131013	1811	76763484
-640	4080	-247	-321	-9065	753	-327	67	87	1817	131062	1812	76763484
-646	4061	-276	-317	-9066	726	-327	67	87	1818	131158	1813	76763488
-665	4080	-284	-311	-9064	737	-325	65	81	1819	131207	1814	76763489
-669	4074	-293	-316	-9063	734	-325	65	81	1820	131303	1815	76763492
-654	4086	-308	-325	-9063	741	-325	53	87	1821	131352	1816	76763509
-645	4059	-272	-327	-9059	747	-325	53	87	1822	131448	1817	76763509
-660	4081	-276	-328	-9063	719	-335	55	83	1823	131497	1818	76763513
-657	4095	-274	-323	-9066	732	-335	55	83	1824	131593	1819	76763514
-652	4080	-297	-315	-9063	731	-333	55	87	1825	131642	1820	76763517
-654	4074	-275	-316	-9061	716	-333	55	87	1826	131738	1821	76763534
-659	4072	-295	-317	-9065	714	-335	51	95	1827	131787	1822	76763534
-649	4078	-296	-317	-9068	697	-335	51	95	1828	131883	1823	76763537
-656	4070	-297	-318	-9060	728	-338	46	92	1829	131932	1824	76763537
-647	4088	-277	-317	-9060	729	-338	46	92	1830	132028	1825	76763543
-679	4087	-268	-324	-9062	715	-341	45	93	1831	132077	1826	76763559
-644	4070	-277	-322	-9061	729	-341	45	93	1832	132173	1827	76763560
-656	4056	-288	-318	-9057	731	-348	46	88	1833	132222	1828	76763564
-674	4064	-286	-315	-9067	739	-348	46	88	1834	132318	1829	76763565
-664	4059	-297	-316	-9065	744	-347	41	89	1835	132367	1830	76763583
-661	4091	-313	-321	-9065	739	-347	41	89	1836	132463	1831	76763584
-664	4087	-301	-326	-9059	739	-341	39	89	1837	132512	1832	76763586
-633	4090	-291	-321	-9064	732	-341	39	89	1838	132608	1833	76763587
-639	4069	-270	-321	-9063	737	-346	34	86	1839	132657	1834	76763588
