Accl X	Accl Y	Accl Z	Gyro X	Gyro Y	Gyro Z	Mag X	Mag Y	Mag Z	RPkt#	Rtime	LPkt#	Ltime
210	297	3938	-42	-25	30	-141	-61	115	0	0	0	58053236
228	294	3924	-42	-22	25	-139	-59	113	1	51	1	58053238
228	303	3914	-44	-24	27	-139	-59	113	2	150	2	58053240
225	313	3919	-43	-27	28	-140	-60	110	3	201	3	58053240
226	305	3921	-42	-26	28	-140	-60	110	4	299	4	58053243
206	302	3917	-40	-23	25	-141	-63	115	5	351	5	58053244
226	295	3902	-42	-25	29	-141	-63	115	6	450	6	58053246
209	297	3934	-41	-25	28	-143	-59	105	7	501	7	58053251
217	289	3897	-40	-25	26	-143	-59	105	8	600	8	58053251
232	302	3913	-43	-26	29	-144	-58	114	9	651	9	58053326
219	293	3918	-44	-23	29	-144	-58	114	10	750	10	58053328
208	299	3890	-41	-24	24	-142	-64	116	11	801	11	58053328
200	284	3886	-41	-25	24	-142	-64	116	12	900	12	58053329
238	298	3908	-42	-25	29	-142	-62	108	13	951	13	58053329
202	288	3916	-45	-28	24	-142	-62	108	14	1050	14	58053329
226	301	3904	-43	-25	26	-147	-63	113	15	1101	15	58053330
221	308	3903	-41	-24	27	-147	-63	113	16	1200	16	58053332
216	304	3914	-39	-24	28	-139	-59	111	17	1251	17	58053332
222	305	3913	-42	-26	27	-139	-59	111	18	1350	18	58053334
221	296	3923	-41	-24	28	-148	-62	108	19	1401	19	58053336
223	298	3918	-42	-25	28	-148	-62	108	20	1500	20	58053337
232	302	3926	-42	-23	30	-140	-60	112	21	1551	21	58053339
227	298	3876	-42	-24	29	-140	-60	112	22	1650	22	58053340
225	303	3898	-41	-26	24	-146	-58	114	23	1701	23	58053342
225	296	3890	-45	-24	27	-146	-58	114	24	1800	24	58053344
217	296	3876	-44	-24	30	-137	-63	113	25	1851	25	58053344
211	309	3895	-42	-26	28	-137	-63	113	26	1950	26	58053347
219	287	3924	-41	-26	29	-140	-66	112	27	2001	27	58053347
226	298	3911	-43	-25	26	-140	-66	112	28	2100	28	58053350
225	279	3908	-45	-24	27	-133	-65	115	29	2151	29	58053383
229	315	3925	-45	-25	26	-133	-65	115	30	2250	30	58053383
228	297	3925	-41	-28	30	-144	-64	114	31	2301	31	58053407
225	299	3904	-40	-24	25	-144	-64	114	32	2400	32	58053413
215	298	3902	-40	-25	25	-145	-61	107	33	2451	33	58053414
213	285	3913	-42	-28	28	-145	-61	107	34	2550	34	58053414
220	296	3928	-40	-29	25	-139	-61	103	35	2601	35	58053414
220	309	3882	-41	-27	25	-139	-61	103	36	2700	36	58053414
225	286	3919	-42	-26	29	-132	-58	110	37	2751	37	58053416
219	302	3910	-42	-27	25	-132	-58	110	38	2850	38	58053417
249	282	3896	-42	-27	25	-137	-57	113	39	2901	39	58053433
229	314	3896	-41	-27	29	-137	-57	113	40	3000	40	58053456
225	289	3907	-43	-27	29	-141	-63	115	41	3051	41	58053466
221	309	3917	-42	-25	26	-141	-63	115	42	3150	42	58053468
232	311	3916	-41	-29	28	-141	-59	111	43	3201	43	58053469
228	294	3932	-41	-25	27	-141	-59	111	44	3300	44	58053469
215	301	3918	-40	-24	26	-142	-58	108	45	3351	45	58053470
222	301	3902	-43	-24	27	-142	-58	108	46	3450	46	58053470
233	321	3924	-43	-26	29	-139	-63	111	47	3501	47	58053471
217	283	3913	-42	-26	28	-139	-63	111	48	3599	48	58053486
222	290	3920	-40	-26	29	-144	-66	112	49	3651	49	58053488
223	307	3933	-44	-25	25	-144	-66	112	50	3750	50	58053488
212	299	3912	-43	-26	28	-136	-66	112	51	3801	51	58053489
229	304	3910	-42	-23	26	-136	-66	112	52	3900	52	58053489
213	299	3891	-40	-24	26	-140	-64	106	53	3951	53	58053489
229	307	3903	-45	-22	25	-140	-64	106	54	4050	54	58053490
239	309	3913	-42	-24	28	-143	-63	109	55	4101	55	58053492
236	302	3921	-43	-25	30	-143	-63	109	56	4200	56	58053493
218	307	3931	-42	-28	26	-136	-70	114	57	4251	57	58053493
223	290	3929	-44	-28	30	-136	-70	114	58	4350	58	58053528
220	301	3909	-41	-26	30	-135	-63	115	59	4401	59	58053528
218	305	3913	-41	-24	28	-135	-63	115	60	4500	60	58053530
231	297	3906	-43	-28	26	-138	-62	110	61	4551	61	58053532
226	309	3915	-43	-26	27	-138	-62	110	62	4650	62	58053532
208	287	3906	-42	-25	25	-143	-61	111	63	4701	63	58053536
220	295	3909	-44	-23	27	-143	-61	111	64	4800	64	58053537
234	296	3916	-42	-24	29	-142	-64	112	65	4851	65	58053538
238	282	3910	-44	-24	24	-142	-64	112	66	4950	66	58053544
239	285	3930	-44	-26	26	-144	-64	116	67	5001	67	58053545
230	294	3916	-42	-24	28	-144	-64	116	68	5100	68	58053579
231	304	3922	-41	-25	27	-143	-69	113	69	5151	69	58053580
212	306	3906	-43	-25	24	-143	-69	113	70	5250	70	58053582
215	299	3916	-41	-24	28	-138	-64	108	71	5301	71	58053583
216	307	3913	-41	-25	26	-138	-64	108	72	5400	72	58053583
223	292	3910	-43	-27	27	-140	-62	108	73	5451	73	58053587
233	296	3898	-43	-26	30	-140	-62	108	74	5550	74	58053588
208	304	3907	-41	-27	28	-143	-57	107	75	5601	75	58053591
220	307	3910	-43	-26	26	-143	-57	107	76	5700	76	58053591
230	298	3906	-43	-26	28	-138	-64	116	77	5751	77	58053594
238	288	3899	-42	-28	25	-138	-64	116	78	5850	78	58053627
223	292	3914	-39	-27	24	-146	-62	116	79	5901	79	58053627
217	292	3910	-44	-25	28	-146	-62	116	80	6000	80	58053630
240	283	3907	-43	-27	27	-138	-60	112	81	6051	81	58053631
224	292	3926	-45	-29	27	-138	-60	112	82	6150	82	58053633
227	291	3923	-44	-27	28	-138	-60	106	83	6201	83	58053634
230	291	3896	-44	-27	27	-138	-60	106	84	6300	84	58053635
235	290	3909	-41	-25	26	-141	-61	113	85	6351	85	58053640
226	290	3906	-44	-23	28	-141	-61	113	86	6450	86	58053640
224	313	3899	-45	-26	28	-144	-62	112	87	6501	87	58053643
221	292	3916	-43	-25	27	-144	-62	112	88	6600	88	58053658
232	291	3903	-40	-22	27	-142	-56	114	89	6651	89	58053658
215	318	3902	-41	-24	26	-142	-56	114	90	6750	90	58053666
222	294	3906	-42	-25	23	-137	-61	113	91	6801	91	58053667
222	300	3912	-43	-26	26	-137	-61	113	92	6900	92	58053669
226	313	3925	-41	-23	28	-146	-66	116	93	6951	93	58053702
234	308	3913	-42	-27	23	-146	-66	116	94	7050	94	58053702
232	299	3910	-41	-26	25	-138	-58	112	95	7101	95	58053705
219	290	3911	-43	-25	26	-138	-58	112	96	7200	96	58053706
235	301	3892	-41	-26	27	-140	-58	110	97	7251	97	58053708
215	312	3898	-44	-25	27	-140	-58	110	98	7350	98	58053710
216	293	3923	-42	-26	26	-140	-60	106	99	7401	99	58053710
225	315	3911	-46	-27	24	-140	-60	106	100	7500	100	58053713
220	313	3905	-44	-25	25	-143	-67	111	101	7551	101	58053713
224	305	3891	-43	-23	27	-143	-67	111	102	7650	102	58053716
218	311	3917	-43	-23	27	-143	-63	111	103	7701	103	58053749
234	304	3887	-43	-26	25	-143	-63	111	104	7800	104	58053749
226	283	3897	-41	-25	26	-141	-61	109	105	7851	105	58053752
204	298	3899	-42	-25	23	-141	-61	109	106	7950	106	58053752
221	290	3883	-40	-27	25	-144	-54	110	107	8001	107	58053755
225	289	3898	-45	-24	27	-144	-54	110	108	8100	108	58053756
225	284	3907	-43	-27	25	-143	-55	109	109	8151	109	58053758
216	306	3924	-44	-24	26	-143	-55	109	110	8250	110	58053764
222	301	3934	-43	-28	27	-138	-64	114	111	8301	111	58053765
225	292	3894	-41	-27	28	-138	-64	114	112	8400	112	58053774
235	305	3924	-42	-24	25	-142	-66	120	113	8451	113	58053775
220	275	3906	-41	-21	26	-142	-66	120	114	8550	114	58053778
229	282	3907	-41	-22	26	-143	-63	111	115	8601	115	58053811
221	313	3904	-42	-23	26	-143	-63	111	116	8700	116	58053822
232	320	3905	-40	-26	26	-145	-65	113	117	8751	117	58053822
229	312	3906	-42	-27	28	-145	-65	113	118	8850	118	58053823
243	301	3907	-43	-24	25	-141	-61	113	119	8901	119	58053824
230	301	3917	-45	-23	29	-141	-61	113	120	9000	120	58053824
222	303	3932	-43	-24	27	-141	-61	105	121	9051	121	58053824
218	296	3897	-41	-27	25	-141	-61	105	122	9150	122	58053826
212	298	3918	-41	-27	28	-137	-67	113	123	9201	123	58053827
231	298	3933	-42	-25	28	-137	-67	113	124	9300	124	58053827
245	310	3905	-40	-24	25	-144	-64	116	125	9351	125	58053859
215	312	3897	-42	-24	27	-144	-64	116	126	9450	126	58053860
212	294	3917	-42	-25	29	-140	-60	108	127	9501	127	58053863
213	297	3900	-43	-24	24	-140	-60	108	128	9600	128	58053863
243	304	3910	-39	-25	27	-137	-55	107	129	9651	129	58053865
238	307	3923	-42	-27	28	-137	-55	107	130	9750	130	58053869
208	300	3904	-42	-27	28	-146	-60	110	131	9801	131	58053870
234	303	3928	-41	-25	28	-146	-60	110	132	9900	132	58053872
230	292	3904	-41	-26	29	-143	-59	111	133	9951	133	58053872
223	308	3886	-45	-25	28	-143	-59	111	134	10050	134	58053874
218	280	3914	-44	-26	27	-135	-59	111	135	10101	135	58053907
217	288	3923	-43	-25	28	-135	-59	111	136	10200	136	58053907
214	319	3907	-42	-25	25	-139	-59	115	137	10251	137	58053912
216	303	3914	-44	-22	26	-139	-59	115	138	10350	138	58053912
216	295	3910	-42	-26	29	-142	-54	104	139	10401	139	58053915
224	283	3891	-42	-25	27	-142	-54	104	140	10500	140	58053916
232	294	3908	-44	-24	26	-140	-52	112	141	10551	141	58053918
206	300	3911	-42	-25	26	-140	-52	112	142	10650	142	58053924
228	301	3911	-42	-25	24	-138	-64	114	143	10701	143	58053924
225	307	3900	-42	-24	25	-138	-64	114	144	10800	144	58053957
233	306	3911	-40	-26	30	-132	-64	114	145	10851	145	58053961
227	302	3897	-41	-26	27	-132	-64	114	146	10950	146	58053962
225	285	3914	-41	-28	27	-140	-58	106	147	11001	147	58053962
233	296	3930	-42	-28	28	-140	-58	106	148	11100	148	58053963
234	314	3921	-38	-25	27	-143	-59	109	149	11151	149	58053963
231	305	3899	-43	-25	23	-143	-59	109	150	11250	150	58053963
226	311	3908	-41	-28	28	-140	-58	106	151	11301	151	58053964
233	298	3908	-44	-24	25	-140	-58	106	152	11400	152	58053994
216	295	3884	-41	-25	25	-144	-64	114	153	11451	153	58053996
233	304	3913	-44	-26	27	-144	-64	114	154	11550	154	58053998
227	282	3910	-42	-25	26	-142	-62	114	155	11601	155	58053998
212	305	3905	-42	-26	26	-142	-62	114	156	11700	156	58054001
228	301	3931	-41	-25	26	-142	-62	110	157	11751	157	58054002
217	303	3943	-42	-24	27	-142	-62	110	158	11850	158	58054011
225	303	3907	-40	-24	25	-142	-58	110	159	11901	159	58054012
224	287	3903	-44	-23	26	-142	-58	110	160	12000	160	58054012
226	309	3911	-43	-26	28	-144	-58	112	161	12050	161	58054013
223	299	3934	-44	-26	28	-144	-58	112	162	12149	162	58054046
218	301	3915	-40	-26	28	-139	-65	109	163	12200	163	58054046
234	298	3920	-40	-24	26	-139	-65	109	164	12299	164	58054049
223	296	3912	-41	-27	25	-145	-63	113	165	12350	165	58054050
223	310	3897	-41	-23	26	-145	-63	113	166	12449	166	58054053
232	302	3905	-41	-23	27	-142	-58	110	167	12500	167	58054053
229	289	3909	-44	-25	26	-142	-58	110	168	12599	168	58054054
223	312	3907	-41	-24	29	-141	-63	113	169	12650	169	58054059
224	302	3912	-44	-23	30	-141	-63	113	170	12749	170	58054060
222	290	3905	-39	-26	26	-140	-62	114	171	12800	171	58054069
239	301	3907	-42	-25	24	-140	-62	114	172	12899	172	58054069
219	302	3918	-44	-25	27	-142	-64	110	173	12950	173	58054071
227	299	3919	-41	-25	26	-142	-64	110	174	13049	174	58054104
219	308	3912	-40	-26	26	-140	-60	110	175	13100	175	58054105
232	306	3909	-42	-22	30	-140	-60	110	176	13199	176	58054108
222	289	3904	-43	-23	26	-143	-59	113	177	13250	177	58054109
210	295	3921	-43	-23	25	-143	-59	113	178	13349	178	58054111
225	284	3915	-42	-27	29	-142	-64	106	179	13400	179	58054112
217	301	3891	-42	-28	30	-142	-64	106	180	13499	180	58054112
221	301	3916	-40	-27	28	-141	-59	111	181	13550	181	58054117
221	300	3886	-44	-23	30	-141	-59	111	182	13649	182	58054118
226	293	3919	-44	-24	25	-148	-60	116	183	13700	183	58054121
207	309	3909	-43	-24	25	-148	-60	116	184	13799	184	58054153
216	298	3924	-41	-26	27	-144	-64	112	185	13850	185	58054154
213	294	3928	-42	-27	26	-144	-64	112	186	13949	186	58054158
223	294	3913	-44	-23	25	-142	-60	110	187	14000	187	58054158
215	298	3901	-45	-24	28	-142	-60	110	188	14099	188	58054159
240	306	3910	-40	-25	27	-141	-55	107	189	14150	189	58054161
240	289	3904	-42	-25	22	-141	-55	107	190	14249	190	58054161
222	308	3905	-42	-27	27	-143	-55	109	191	14300	191	58054169
212	301	3914	-44	-25	27	-143	-55	109	192	14399	192	58054169
223	279	3902	-43	-23	24	-137	-61	111	193	14450	193	58054170
226	302	3899	-42	-23	28	-137	-61	111	194	14549	194	58054202
227	289	3929	-43	-24	27	-143	-59	115	195	14600	195	58054202
219	299	3915	-43	-25	24	-143	-59	115	196	14699	196	58054204
219	300	3908	-43	-26	26	-141	-61	109	197	14750	197	58054208
222	299	3911	-42	-24	25	-141	-61	109	198	14849	198	58054209
216	297	3919	-40	-26	25	-144	-62	114	199	14900	199	58054210
200	312	3913	-41	-24	27	-144	-62	114	200	14999	200	58054210
207	302	3921	-43	-25	27	-141	-57	113	201	15050	201	58054220
213	342	3906	-43	-25	24	-141	-57	113	202	15149	202	58054221
223	305	3908	-44	-28	28	-139	-63	113	203	15200	203	58054252
237	287	3906	-45	-23	28	-139	-63	113	204	15299	204	58054252
233	289	3885	-41	-26	25	-145	-61	111	205	15350	205	58054254
221	306	3912	-46	-24	29	-145	-61	111	206	15449	206	58054256
215	295	3907	-42	-27	29	-144	-60	114	207	15500	207	58054256
225	312	3895	-43	-25	27	-144	-60	114	208	15599	208	58054259
226	309	3922	-41	-25	28	-141	-67	105	209	15650	209	58054260
238	303	3914	-41	-23	28	-141	-67	105	210	15749	210	58054262
220	299	3929	-42	-25	26	-145	-61	111	211	15800	211	58054270
237	288	3930	-45	-24	26	-145	-61	111	212	15899	212	58054271
229	296	3922	-43	-26	28	-140	-70	114	213	15950	213	58054277
210	304	3910	-40	-28	27	-140	-70	114	214	16049	214	58054280
216	307	3897	-39	-25	24	-140	-60	110	215	16100	215	58054281
219	302	3913	-44	-26	29	-140	-60	110	216	16199	216	58054313
226	299	3909	-44	-28	30	-146	-62	112	217	16250	217	58054314
227	300	3924	-42	-25	29	-146	-62	112	218	16349	218	58054317
224	301	3911	-42	-23	29	-141	-59	111	219	16400	219	58054319
227	299	3909	-43	-25	26	-141	-59	111	220	16499	220	58054320
231	299	3920	-43	-26	25	-141	-61	107	221	16550	221	58054321
232	298	3928	-42	-26	27	-141	-61	107	222	16649	222	58054321
226	296	3905	-42	-26	25	-143	-61	105	223	16700	223	58054326
229	308	3888	-42	-24	28	-143	-61	105	224	16799	224	58054326
240	295	3906	-42	-26	30	-143	-61	117	225	16850	225	58054328
226	288	3917	-44	-28	26	-143	-61	117	226	16948	226	58054361
225	297	3911	-43	-25	24	-134	-62	114	227	17000	227	58054361
224	295	3928	-44	-23	27	-134	-62	114	228	17099	228	58054364
217	308	3927	-41	-23	26	-147	-59	113	229	17150	229	58054366
211	298	3920	-43	-26	27	-147	-59	113	230	17249	230	58054368
227	304	3922	-40	-23	26	-135	-61	113	231	17300	231	58054369
215	304	3907	-41	-26	26	-135	-61	113	232	17399	232	58054370
207	297	3883	-42	-26	25	-141	-57	105	233	17450	233	58054376
226	296	3910	-41	-26	27	-141	-57	105	234	17549	234	58054376
220	293	3914	-42	-25	27	-141	-63	115	235	17600	235	58054411
223	310	3908	-45	-25	27	-141	-63	115	236	17699	236	58054412
216	294	3912	-42	-29	28	-135	-61	115	237	17750	237	58054413
227	305	3894	-42	-27	29	-135	-61	115	238	17849	238	58054417
235	311	3903	-39	-28	27	-143	-57	109	239	17900	239	58054417
241	305	3902	-42	-25	25	-143	-57	109	240	17999	240	58054418
214	284	3916	-42	-26	27	-140	-54	110	241	18050	241	58054418
226	302	3883	-44	-26	25	-140	-54	110	242	18149	242	58054421
232	286	3886	-44	-29	28	-144	-66	110	243	18200	243	58054426
210	292	3900	-43	-26	29	-144	-66	110	244	18299	244	58054427
225	305	3923	-42	-25	26	-137	-65	107	245	18350	245	58054461
231	298	3905	-42	-27	28	-137	-65	107	246	18449	246	58054462
231	304	3907	-43	-27	30	-139	-65	115	247	18500	247	58054463
227	298	3916	-44	-27	26	-139	-65	115	248	18599	248	58054465
221	314	3923	-41	-26	27	-140	-56	112	249	18650	249	58054469
208	311	3927	-44	-23	28	-140	-56	112	250	18749	250	58054469
223	301	3917	-43	-26	27	-144	-60	108	251	18800	251	58054469
233	271	3912	-41	-26	26	-144	-60	108	252	18899	252	58054471
229	296	3918	-40	-24	29	-141	-57	109	253	18950	253	58054477
228	289	3903	-44	-22	25	-141	-57	109	254	19049	254	58054478
211	310	3907	-42	-27	25	-136	-62	114	255	19100	255	58054488
222	293	3899	-43	-28	29	-136	-62	114	256	19199	256	58054488
240	295	3918	-42	-28	27	-140	-60	112	257	19250	257	58054490
234	291	3882	-40	-26	24	-140	-60	112	258	19349	258	58054497
229	296	3903	-40	-25	30	-144	-62	108	259	19400	259	58054497
239	292	3917	-43	-24	26	-144	-62	108	260	19499	260	58054532
218	307	3879	-45	-26	26	-142	-64	114	261	19550	261	58054533
225	301	3895	-40	-22	29	-142	-64	114	262	19648	262	58054538
230	314	3920	-41	-24	27	-142	-64	112	263	19699	263	58054540
235	303	3918	-41	-25	24	-142	-64	112	264	19798	264	58054541
237	309	3928	-41	-25	29	-144	-58	108	265	19849	265	58054547
230	296	3883	-42	-26	26	-144	-58	108	266	19948	266	58054549
212	299	3911	-40	-24	21	-147	-61	109	267	19999	267	58054553
222	320	3899	-42	-25	27	-147	-61	109	268	20098	268	58054561
216	303	3909	-42	-23	28	-144	-62	110	269	20149	269	58054561
227	291	3912	-42	-22	26	-144	-62	110	270	20248	270	58054590
231	286	3895	-40	-26	27	-145	-59	113	271	20299	271	58054590
226	305	3900	-40	-24	26	-145	-59	113	272	20398	272	58054593
233	309	3891	-41	-26	25	-139	-59	115	273	20449	273	58054597
237	295	3902	-42	-24	28	-139	-59	115	274	20548	274	58054599
223	286	3902	-41	-26	28	-142	-66	108	275	20599	275	58054601
239	302	3916	-42	-25	25	-142	-66	108	276	20698	276	58054603
248	295	3933	-43	-24	27	-150	-56	106	277	20749	277	58054604
241	291	3927	-45	-21	28	-150	-56	106	278	20848	278	58054607
229	308	3920	-41	-26	28	-145	-61	105	279	20899	279	58054608
234	287	3901	-42	-27	28	-145	-61	105	280	20998	280	58054609
224	276	3893	-41	-25	29	-141	-63	109	281	21049	281	58054610
231	292	3907	-40	-25	27	-141	-63	109	282	21148	282	58054619
235	300	3901	-43	-25	28	-144	-56	116	283	21199	283	58054620
219	292	3888	-43	-25	27	-144	-56	116	284	21298	284	58054623
210	293	3923	-42	-25	25	-142	-64	112	285	21349	285	58054656
225	296	3911	-42	-21	30	-142	-64	112	286	21448	286	58054656
228	308	3909	-41	-24	28	-143	-57	109	287	21499	287	58054659
227	312	3900	-41	-28	29	-143	-57	109	288	21598	288	58054659
217	286	3901	-44	-25	27	-142	-54	108	289	21649	289	58054662
216	299	3886	-42	-22	30	-142	-54	108	290	21748	290	58054663
221	298	3898	-41	-25	26	-143	-61	109	291	21799	291	58054664
218	306	3921	-42	-25	25	-143	-61	109	292	21898	292	58054668
222	305	3905	-43	-26	26	-141	-57	109	293	21949	293	58054669
220	304	3904	-45	-25	25	-141	-57	109	294	22048	294	58054703
240	291	3891	-41	-26	25	-135	-65	111	295	22099	295	58054703
218	302	3897	-44	-28	28	-135	-65	111	296	22198	296	58054705
224	291	3901	-43	-25	27	-140	-60	112	297	22249	297	58054707
211	297	3899	-43	-23	28	-140	-60	112	298	22348	298	58054707
237	294	3898	-40	-27	28	-145	-61	107	299	22399	299	58054711
217	296	3910	-44	-27	27	-145	-61	107	300	22498	300	58054712
219	301	3915	-43	-23	25	-138	-62	110	301	22549	301	58054713
223	284	3913	-44	-25	26	-138	-62	110	302	22648	302	58054718
219	313	3898	-40	-26	27	-139	-65	117	303	22699	303	58054719
236	300	3927	-43	-28	28	-139	-65	117	304	22798	304	58054753
239	309	3908	-42	-28	27	-135	-61	115	305	22849	305	58054754
232	308	3897	-44	-25	27	-135	-61	115	306	22948	306	58054755
229	295	3928	-42	-27	25	-144	-58	112	307	22999	307	58054757
223	293	3915	-43	-27	25	-144	-58	112	308	23098	308	58054757
228	296	3924	-42	-25	26	-139	-63	111	309	23149	309	58054761
228	297	3907	-45	-28	27	-139	-63	111	310	23248	310	58054761
224	306	3911	-43	-27	27	-146	-60	110	311	23299	311	58054763
218	288	3912	-44	-26	28	-146	-60	110	312	23398	312	58054768
215	305	3919	-40	-28	25	-139	-61	115	313	23449	313	58054768
223	308	3895	-39	-24	29	-139	-61	115	314	23548	314	58054804
223	290	3919	-40	-24	31	-144	-62	116	315	23599	315	58054804
228	299	3895	-43	-23	25	-144	-62	116	316	23698	316	58054807
225	289	3916	-42	-26	28	-138	-62	112	317	23749	317	58054807
234	297	3891	-40	-22	30	-138	-62	112	318	23848	318	58054808
226	281	3896	-40	-25	27	-141	-59	111	319	23899	319	58054811
229	281	3915	-40	-26	26	-141	-59	111	320	23998	320	58054811
232	297	3903	-42	-25	27	-142	-64	108	321	24049	321	58054813
228	297	3904	-43	-26	26	-142	-64	108	322	24148	322	58054815
234	303	3917	-42	-27	27	-140	-62	112	323	24199	323	58054815
228	291	3899	-42	-25	29	-140	-62	112	324	24298	324	58054851
233	302	3913	-43	-27	26	-144	-62	114	325	24349	325	58054852
228	300	3915	-42	-25	29	-144	-62	114	326	24448	326	58054854
222	303	3931	-43	-26	30	-140	-62	114	327	24499	327	58054854
214	303	3919	-42	-27	28	-140	-62	114	328	24598	328	58054856
224	294	3908	-43	-28	26	-143	-61	111	329	24649	329	58054858
202	314	3896	-43	-23	27	-143	-61	111	330	24748	330	58054859
241	301	3910	-38	-25	23	-139	-61	113	331	24799	331	58054863
222	301	3912	-41	-24	25	-139	-61	113	332	24898	332	58054863
225	301	3924	-40	-24	28	-144	-66	114	333	24949	333	58054867
234	302	3909	-43	-24	27	-144	-66	114	334	25048	334	58054899
229	307	3929	-43	-25	26	-139	-61	115	335	25099	335	58054900
223	310	3920	-43	-25	29	-139	-61	115	336	25198	336	58054903
228	300	3908	-43	-25	28	-135	-59	109	337	25249	337	58054903
217	295	3916	-42	-25	26	-135	-59	109	338	25348	338	58054906
219	308	3919	-41	-27	29	-141	-59	109	339	25399	339	58054908
216	307	3902	-44	-26	28	-141	-59	109	340	25498	340	58054908
216	297	3924	-40	-25	24	-144	-64	108	341	25549	341	58054914
215	293	3910	-44	-23	27	-144	-64	108	342	25648	342	58054915
220	305	3903	-43	-25	29	-145	-61	115	343	25699	343	58054917
223	300	3888	-44	-27	27	-145	-61	115	344	25798	344	58054949
217	297	3922	-41	-26	28	-140	-56	120	345	25849	345	58054950
231	313	3909	-43	-22	28	-140	-56	120	346	25947	346	58054953
222	303	3922	-41	-25	25	-144	-62	112	347	25998	347	58054953
220	316	3919	-43	-25	26	-144	-62	112	348	26097	348	58054957
221	280	3911	-41	-24	27	-144	-58	108	349	26148	349	58054958
220	300	3917	-44	-26	24	-144	-58	108	350	26247	350	58054958
220	300	3918	-42	-26	27	-146	-60	108	351	26298	351	58054961
233	297	3898	-41	-24	28	-146	-60	108	352	26397	352	58054962
235	319	3920	-43	-25	26	-141	-63	111	353	26448	353	58054964
229	290	3913	-45	-24	30	-141	-63	111	354	26547	354	58054997
211	303	3921	-42	-24	26	-141	-55	115	355	26598	355	58054998
225	307	3935	-43	-25	27	-141	-55	115	356	26697	356	58055002
215	282	3913	-41	-26	25	-141	-57	115	357	26748	357	58055003
235	289	3903	-42	-28	28	-141	-57	115	358	26847	358	58055004
217	303	3901	-43	-24	27	-140	-64	110	359	26898	359	58055008
214	309	3892	-44	-23	26	-140	-64	110	360	26997	360	58055009
219	293	3893	-43	-25	28	-143	-59	105	361	27048	361	58055013
221	305	3890	-46	-24	27	-143	-59	105	362	27147	362	58055014
218	309	3888	-42	-27	27	-138	-58	116	363	27198	363	58055023
227	309	3916	-39	-25	25	-138	-58	116	364	27297	364	58055023
225	296	3914	-40	-26	26	-144	-60	110	365	27348	365	58055027
220	308	3895	-43	-26	26	-144	-60	110	366	27447	366	58055060
231	309	3913	-41	-25	28	-146	-66	112	367	27498	367	58055060
226	306	3926	-44	-25	27	-146	-66	112	368	27597	368	58055064
245	295	3903	-45	-27	26	-141	-65	113	369	27648	369	58055064
219	291	3906	-46	-24	29	-141	-65	113	370	27747	370	58055069
226	294	3929	-44	-23	26	-142	-58	110	371	27798	371	58055069
217	299	3915	-44	-24	25	-142	-58	110	372	27896	372	58055070
223	291	3901	-45	-24	28	-136	-58	110	373	27948	373	58055073
221	311	3896	-44	-24	30	-136	-58	110	374	28047	374	58055074
211	303	3917	-42	-27	26	-148	-58	116	375	28098	375	58055076
223	301	3900	-45	-25	29	-148	-58	116	376	28197	376	58055108
229	307	3913	-44	-26	29	-146	-60	114	377	28248	377	58055108
219	299	3907	-42	-25	27	-146	-60	114	378	28347	378	58055111
230	293	3893	-42	-24	30	-139	-59	109	379	28398	379	58055113
234	293	3912	-43	-26	29	-139	-59	109	380	28497	380	58055114
229	312	3927	-45	-23	24	-135	-61	109	381	28548	381	58055115
223	286	3923	-45	-23	28	-135	-61	109	382	28647	382	58055117
237	305	3936	-43	-25	26	-143	-59	111	383	28698	383	58055121
223	306	3921	-43	-26	26	-143	-59	111	384	28797	384	58055121
229	304	3910	-42	-25	26	-136	-64	118	385	28848	385	58055155
219	307	3903	-42	-25	26	-136	-64	118	386	28947	386	58055156
231	304	3904	-42	-24	25	-138	-56	116	387	28998	387	58055158
216	293	3905	-43	-26	30	-138	-56	116	388	29097	388	58055159
222	290	3923	-43	-27	29	-147	-61	105	389	29148	389	58055160
217	300	3904	-41	-25	23	-147	-61	105	390	29247	390	58055163
218	307	3904	-42	-25	27	-140	-58	108	391	29298	391	58055163
242	300	3934	-43	-26	28	-140	-58	108	392	29397	392	58055165
227	303	3914	-38	-29	26	-141	-59	109	393	29448	393	58055172
224	301	3918	-43	-25	27	-141	-59	109	394	29547	394	58055172
234	306	3933	-42	-27	29	-139	-61	113	395	29598	395	58055229
214	296	3895	-43	-26	27	-139	-61	113	396	29697	396	58055230
224	305	3898	-43	-24	28	-139	-65	113	397	29748	397	58055232
231	306	3895	-42	-23	28	-139	-65	113	398	29847	398	58055234
229	294	3915	-43	-25	26	-145	-65	107	399	29898	399	58055234
210	295	3914	-43	-26	27	-145	-65	107	400	29997	400	58055237
217	285	3925	-42	-26	28	-140	-58	114	401	30048	401	58055238
225	299	3897	-40	-25	25	-140	-58	114	402	30147	402	58055239
246	310	3906	-41	-27	25	-141	-55	109	403	30198	403	58055241
231	297	3902	-43	-25	28	-141	-55	109	404	30297	404	58055248
223	294	3914	-43	-25	23	-145	-59	111	405	30348	405	58055249
219	288	3889	-42	-24	25	-145	-59	111	406	30447	406	58055249
223	296	3906	-45	-27	30	-143	-59	107	407	30498	407	58055250
221	302	3909	-41	-26	29	-143	-59	107	408	30597	408	58055250
220	294	3923	-44	-24	23	-142	-58	116	409	30648	409	58055250
216	295	3918	-42	-24	29	-142	-58	116	410	30747	410	58055257
236	296	3920	-42	-25	26	-143	-67	115	411	30798	411	58055258
229	298	3904	-43	-22	25	-143	-67	115	412	30897	412	58055260
247	301	3904	-42	-24	28	-140	-58	114	413	30947	413	58055293
224	313	3891	-44	-23	27	-140	-58	114	414	31046	414	58055294
227	294	3913	-40	-24	25	-145	-59	115	415	31097	415	58055297
221	294	3913	-44	-25	28	-145	-59	115	416	31195	416	58055297
221	308	3925	-42	-27	26	-138	-58	110	417	31247	417	58055301
193	309	3918	-41	-26	25	-138	-58	110	418	31346	418	58055302
242	306	3922	-40	-27	28	-144	-60	108	419	31397	419	58055303
224	292	3927	-43	-24	26	-144	-60	108	420	31496	420	58055304
240	281	3900	-39	-24	26	-140	-60	114	421	31547	421	58055304
232	294	3920	-41	-24	30	-140	-60	114	422	31646	422	58055339
227	319	3912	-41	-26	28	-138	-62	116	423	31697	423	58055340
218	299	3917	-44	-24	29	-138	-62	116	424	31796	424	58055342
237	286	3916	-42	-24	24	-147	-53	113	425	31847	425	58055344
214	292	3915	-44	-27	27	-147	-53	113	426	31946	426	58055344
248	291	3922	-43	-28	25	-143	-59	105	427	31997	427	58055347
228	305	3907	-43	-24	26	-143	-59	105	428	32096	428	58055347
223	298	3920	-41	-24	28	-143	-61	113	429	32146	429	58055349
223	307	3908	-43	-23	25	-143	-61	113	430	32245	430	58055357
230	298	3916	-41	-23	26	-145	-65	117	431	32296	431	58055357
221	310	3897	-43	-21	28	-145	-65	117	432	32395	432	58055391
218	306	3900	-39	-26	23	-137	-61	109	433	32446	433	58055392
225	296	3893	-45	-24	27	-137	-61	109	434	32545	434	58055393
225	282	3899	-41	-23	30	-145	-69	109	435	32596	435	58055395
231	287	3903	-45	-24	27	-145	-69	109	436	32695	436	58055395
229	315	3909	-43	-23	29	-143	-61	109	437	32746	437	58055398
212	297	3921	-42	-23	27	-143	-61	109	438	32845	438	58055399
223	303	3927	-38	-27	26	-142	-58	108	439	32896	439	58055402
217	312	3901	-41	-24	25	-142	-58	108	440	32995	440	58055403
252	303	3915	-39	-25	28	-143	-63	111	441	33046	441	58055404
224	298	3897	-44	-24	27	-143	-63	111	442	33145	442	58055438
238	296	3918	-42	-24	26	-141	-69	115	443	33196	443	58055439
231	302	3929	-42	-24	29	-141	-69	115	444	33295	444	58055440
211	301	3911	-42	-26	26	-145	-61	107	445	33346	445	58055442
213	299	3899	-43	-26	27	-145	-61	107	446	33445	446	58055442
204	301	3934	-40	-25	29	-143	-57	111	447	33496	447	58055445
220	307	3912	-44	-23	25	-143	-57	111	448	33595	448	58055446
217	318	3908	-41	-25	26	-145	-59	115	449	33646	449	58055451
229	293	3915	-45	-25	28	-145	-59	115	450	33745	450	58055451
218	295	3920	-43	-26	27	-150	-60	114	451	33796	451	58055452
230	291	3914	-45	-22	25	-150	-60	114	452	33895	452	58055487
217	293	3894	-41	-26	26	-147	-63	115	453	33946	453	58055488
224	295	3894	-44	-23	28	-147	-63	115	454	34045	454	58055491
210	294	3898	-43	-27	27	-143	-63	109	455	34096	455	58055491
242	279	3888	-44	-27	29	-143	-63	109	456	34195	456	58055493
230	285	3910	-44	-25	27	-141	-67	113	457	34246	457	58055495
223	291	3893	-44	-24	26	-141	-67	113	458	34345	458	58055496
225	302	3923	-44	-26	25	-140	-58	108	459	34396	459	58055502
217	291	3913	-44	-26	28	-140	-58	108	460	34495	460	58055502
223	304	3917	-46	-24	25	-143	-63	115	461	34546	461	58055504
225	297	3895	-42	-24	29	-143	-63	115	462	34645	462	58055537
242	297	3906	-42	-29	27	-142	-54	114	463	34696	463	58055543
227	305	3916	-43	-23	23	-142	-54	114	464	34795	464	58055547
230	315	3908	-43	-26	28	-142	-64	112	465	34846	465	58055547
226	299	3912	-40	-25	30	-142	-64	112	466	34945	466	58055548
230	293	3905	-40	-24	25	-145	-59	113	467	34996	467	58055548
222	292	3922	-43	-27	27	-145	-59	113	468	35095	468	58055548
231	308	3931	-43	-25	27	-137	-61	113	469	35146	469	58055549
241	301	3920	-42	-26	26	-137	-61	113	470	35245	470	58055550
208	295	3915	-41	-26	27	-146	-60	120	471	35296	471	58055553
227	299	3906	-40	-24	27	-146	-60	120	472	35395	472	58055585
228	291	3904	-42	-24	27	-144	-64	110	473	35446	473	58055586
217	302	3922	-43	-26	25	-144	-64	110	474	35545	474	58055589
219	306	3923	-43	-28	29	-140	-68	108	475	35596	475	58055589
230	294	3925	-43	-26	29	-140	-68	108	476	35695	476	58055591
211	297	3889	-43	-26	28	-143	-61	115	477	35746	477	58055593
214	289	3918	-42	-26	29	-143	-61	115	478	35845	478	58055593
231	310	3922	-43	-26	26	-138	-58	106	479	35896	479	58055601
230	298	3904	-43	-24	23	-138	-58	106	480	35995	480	58055601
236	291	3913	-40	-25	27	-141	-61	115	481	36046	481	58055610
232	297	3923	-43	-25	27	-141	-61	115	482	36145	482	58055611
229	298	3931	-42	-26	25	-142	-62	116	483	36196	483	58055614
231	302	3904	-43	-25	29	-142	-62	116	484	36295	484	58055647
230	296	3920	-41	-24	27	-142	-58	108	485	36346	485	58055647
230	285	3919	-41	-24	26	-142	-58	108	486	36445	486	58055650
200	301	3916	-40	-26	26	-144	-64	112	487	36496	487	58055650
224	303	3906	-45	-26	26	-144	-64	112	488	36595	488	58055653
228	313	3902	-43	-26	24	-143	-57	109	489	36646	489	58055654
217	288	3929	-45	-25	28	-143	-57	109	490	36745	490	58055654
230	300	3924	-42	-24	26	-141	-59	113	491	36796	491	58055659
218	284	3930	-44	-27	26	-141	-59	113	492	36895	492	58055660
221	301	3904	-42	-24	29	-145	-59	113	493	36946	493	58055663
221	297	3902	-43	-24	26	-145	-59	113	494	37045	494	58055696
224	279	3914	-41	-25	24	-141	-63	109	495	37096	495	58055697
216	290	3905	-44	-26	27	-141	-63	109	496	37195	496	58055699
236	298	3910	-41	-26	28	-142	-58	112	497	37246	497	58055700
237	286	3900	-45	-25	26	-142	-58	112	498	37345	498	58055702
232	293	3906	-44	-26	30	-141	-63	111	499	37396	499	58055703
217	286	3885	-43	-25	29	-141	-63	111	500	37495	500	58055704
231	303	3918	-42	-26	24	-141	-63	115	501	37546	501	58055708
225	298	3904	-43	-24	27	-141	-63	115	502	37645	502	58055708
205	295	3918	-44	-27	28	-141	-63	115	503	37696	503	58055712
236	298	3892	-44	-26	25	-141	-63	115	504	37795	504	58055744
237	291	3913	-42	-24	26	-141	-61	113	505	37846	505	58055745
235	292	3902	-45	-26	26	-141	-61	113	506	37945	506	58055749
227	298	3911	-43	-24	26	-143	-59	107	507	37996	507	58055753
228	292	3888	-44	-26	24	-143	-59	107	508	38095	508	58055753
227	297	3901	-41	-26	27	-141	-57	107	509	38146	509	58055754
213	290	3940	-41	-25	25	-141	-57	107	510	38245	510	58055754
224	299	3905	-41	-26	26	-141	-59	111	511	38296	511	58055759
220	296	3925	-44	-22	29	-141	-59	111	512	38395	512	58055759
238	300	3916	-40	-24	27	-141	-61	113	513	38446	513	58055794
217	310	3917	-43	-24	27	-141	-61	113	514	38545	514	58055795
238	300	3932	-44	-26	29	-143	-55	113	515	38596	515	58055797
233	308	3919	-43	-25	27	-143	-55	113	516	38695	516	58055798
225	289	3912	-42	-26	26	-145	-65	107	517	38746	517	58055798
237	293	3915	-45	-25	29	-145	-65	107	518	38845	518	58055802
225	289	3919	-43	-23	26	-138	-60	108	519	38896	519	58055802
232	298	3903	-43	-27	22	-138	-60	108	520	38995	520	58055804
220	292	3920	-41	-28	28	-145	-59	105	521	39046	521	58055808
227	310	3907	-42	-25	28	-145	-59	105	522	39145	522	58055808
225	300	3907	-41	-24	26	-142	-60	114	523	39196	523	58055842
241	293	3874	-41	-25	27	-142	-60	114	524	39295	524	58055842
243	285	3934	-40	-29	26	-135	-65	113	525	39346	525	58055844
223	309	3909	-43	-23	23	-135	-65	113	526	39445	526	58055871
228	293	3923	-42	-25	28	-137	-59	107	527	39496	527	58055881
224	283	3916	-42	-23	28	-137	-59	107	528	39595	528	58055882
233	320	3910	-41	-26	25	-141	-61	113	529	39646	529	58055883
213	304	3920	-42	-25	29	-141	-61	113	530	39745	530	58055892
233	296	3890	-42	-24	31	-143	-61	111	531	39796	531	58055892
214	288	3901	-42	-26	28	-143	-61	111	532	39895	532	58055892
223	284	3944	-41	-24	30	-141	-57	113	533	39946	533	58055893
222	303	3915	-42	-25	29	-141	-57	113	534	40045	534	58055893
235	307	3913	-42	-26	25	-143	-59	107	535	40096	535	58055894
227	303	3940	-43	-23	28	-143	-59	107	536	40195	536	58055896
234	301	3899	-43	-23	29	-147	-67	113	537	40246	537	58055896
230	301	3904	-42	-26	27	-147	-67	113	538	40345	538	58055897
221	298	3906	-40	-25	26	-140	-64	112	539	40396	539	58055897
215	293	3899	-41	-25	27	-140	-64	112	540	40495	540	58055897
210	306	3912	-42	-24	27	-142	-60	112	541	40546	541	58055929
214	306	3896	-40	-26	27	-142	-60	112	542	40645	542	58055931
229	300	3910	-42	-27	29	-141	-63	115	543	40696	543	58055933
243	285	3918	-43	-24	28	-141	-63	115	544	40795	544	58055933
213	292	3936	-42	-26	26	-144	-54	110	545	40846	545	58055936
226	303	3900	-45	-27	29	-144	-54	110	546	40945	546	58055937
219	295	3917	-42	-24	25	-144	-60	110	547	40996	547	58055939
204	296	3902	-42	-25	26	-144	-60	110	548	41095	548	58055942
215	307	3900	-41	-27	26	-138	-60	114	549	41146	549	58055943
235	304	3903	-44	-27	24	-138	-60	114	550	41245	550	58055976
237	315	3915	-42	-23	26	-133	-69	119	551	41296	551	58055977
212	286	3887	-42	-25	27	-133	-69	119	552	41395	552	58055979
214	302	3931	-41	-24	29	-140	-62	114	553	41446	553	58055980
221	291	3929	-45	-24	28	-140	-62	114	554	41545	554	58055981
228	291	3921	-41	-23	27	-139	-61	113	555	41596	555	58055984
221	312	3924	-40	-26	25	-139	-61	113	556	41695	556	58055985
218	295	3907	-42	-26	23	-148	-58	112	557	41746	557	58055987
224	292	3897	-45	-25	28	-148	-58	112	558	41845	558	58055991
220	316	3898	-41	-23	27	-136	-66	112	559	41896	559	58055992
216	299	3909	-41	-26	28	-136	-66	112	560	41995	560	58056027
233	297	3882	-41	-25	28	-146	-64	116	561	42046	561	58056028
238	298	3911	-44	-26	28	-146	-64	116	562	42145	562	58056029
217	304	3929	-40	-25	26	-140	-60	114	563	42196	563	58056031
231	299	3934	-42	-24	27	-140	-60	114	564	42295	564	58056032
224	303	3907	-41	-27	28	-142	-58	104	565	42346	565	58056034
218	290	3897	-45	-25	28	-142	-58	104	566	42445	566	58056035
221	312	3883	-41	-26	29	-137	-53	109	567	42496	567	58056037
224	296	3916	-42	-22	27	-137	-53	109	568	42595	568	58056042
228	282	3911	-40	-24	27	-135	-61	111	569	42646	569	58056043
234	291	3904	-45	-28	28	-135	-61	111	570	42745	570	58056052
219	293	3916	-44	-25	26	-139	-65	115	571	42796	571	58056052
241	302	3925	-44	-25	26	-139	-65	115	572	42895	572	58056056
218	316	3911	-40	-26	28	-143	-63	105	573	42946	573	58056089
225	301	3924	-43	-25	29	-143	-63	105	574	43045	574	58056099
223	302	3916	-41	-25	26	-144	-60	116	575	43096	575	58056100
218	310	3906	-41	-25	25	-144	-60	116	576	43195	576	58056100
209	296	3905	-41	-25	29	-139	-57	109	577	43246	577	58056101
228	288	3920	-43	-25	25	-139	-57	109	578	43345	578	58056101
224	283	3898	-44	-27	28	-141	-61	107	579	43396	579	58056102
223	286	3902	-43	-23	28	-141	-61	107	580	43495	580	58056102
226	300	3891	-43	-23	24	-140	-58	112	581	43546	581	58056102
224	308	3913	-43	-25	28	-140	-58	112	582	43645	582	58056136
220	296	3909	-41	-26	27	-140	-64	112	583	43696	583	58056136
218	294	3909	-44	-25	25	-140	-64	112	584	43795	584	58056138
226	313	3915	-41	-25	27	-138	-62	112	585	43846	585	58056140
224	313	3899	-43	-24	31	-138	-62	112	586	43945	586	58056140
214	303	3920	-43	-27	26	-141	-63	111	587	43996	587	58056144
222	300	3933	-43	-27	26	-141	-63	111	588	44095	588	58056148
223	302	3929	-39	-26	29	-144	-56	108	589	44146	589	58056149
214	311	3914	-46	-25	27	-144	-56	108	590	44245	590	58056151
223	310	3914	-45	-26	27	-139	-61	115	591	44296	591	58056151
215	300	3908	-44	-26	30	-139	-61	115	592	44395	592	58056185
221	300	3910	-44	-25	25	-140	-60	114	593	44446	593	58056186
230	286	3911	-42	-25	25	-140	-60	114	594	44545	594	58056188
219	309	3935	-41	-24	26	-139	-63	109	595	44596	595	58056189
217	311	3918	-44	-25	26	-139	-63	109	596	44695	596	58056189
227	305	3890	-42	-25	22	-142	-60	108	597	44746	597	58056193
223	310	3915	-44	-26	24	-142	-60	108	598	44845	598	58056193
231	306	3914	-42	-25	26	-140	-58	106	599	44896	599	58056195
227	293	3906	-41	-27	26	-140	-58	106	600	44995	600	58056201
223	284	3917	-43	-25	28	-139	-61	109	601	45046	601	58056214
220	299	3919	-43	-24	29	-139	-61	109	602	45145	602	58056235
230	308	3918	-40	-23	26	-133	-65	111	603	45196	603	58056236
235	311	3906	-43	-25	27	-133	-65	111	604	45295	604	58056238
221	304	3911	-43	-25	26	-136	-62	110	605	45346	605	58056239
223	298	3914	-45	-26	24	-136	-62	110	606	45445	606	58056240
219	299	3909	-41	-25	26	-142	-60	114	607	45496	607	58056243
223	306	3905	-43	-22	27	-142	-60	114	608	45595	608	58056243
238	299	3926	-41	-25	25	-142	-60	110	609	45646	609	58056247
234	282	3906	-43	-26	26	-142	-60	110	610	45745	610	58056247
247	299	3879	-41	-26	29	-142	-66	112	611	45796	611	58056251
232	303	3909	-41	-24	27	-142	-66	112	612	45895	612	58056283
232	300	3903	-40	-25	26	-146	-58	114	613	45946	613	58056283
211	306	3916	-44	-25	29	-146	-58	114	614	46045	614	58056287
213	300	3928	-43	-25	25	-142	-64	108	615	46096	615	58056294
235	298	3911	-44	-27	26	-142	-64	108	616	46195	616	58056298
213	297	3912	-42	-26	27	-141	-63	109	617	46246	617	58056301
229	295	3919	-44	-26	26	-141	-63	109	618	46345	618	58056302
216	305	3909	-42	-26	28	-135	-61	105	619	46396	619	58056302
215	300	3910	-41	-24	30	-135	-61	105	620	46495	620	58056303
242	305	3892	-42	-26	26	-143	-63	115	621	46546	621	58056304
234	304	3905	-44	-26	26	-143	-63	115	622	46645	622	58056332
223	298	3929	-41	-25	28	-141	-67	117	623	46696	623	58056332
232	313	3925	-43	-24	27	-141	-67	117	624	46795	624	58056335
227	306	3912	-39	-26	25	-137	-59	111	625	46846	625	58056336
232	297	3927	-40	-24	30	-137	-59	111	626	46945	626	58056338
232	287	3892	-41	-24	25	-145	-59	107	627	46996	627	58056340
200	302	3912	-43	-24	28	-145	-59	107	628	47095	628	58056341
220	305	3913	-41	-25	29	-144	-62	108	629	47146	629	58056347
236	303	3931	-41	-27	28	-144	-62	108	630	47245	630	58056353
221	297	3917	-41	-27	23	-139	-55	113	631	47296	631	58056354
217	294	3918	-42	-27	28	-139	-55	113	632	47395	632	58056382
240	312	3930	-41	-28	28	-141	-57	113	633	47446	633	58056383
227	286	3927	-41	-23	25	-141	-57	113	634	47545	634	58056386
224	300	3904	-40	-26	29	-140	-60	114	635	47596	635	58056386
241	282	3916	-42	-23	26	-140	-60	114	636	47695	636	58056388
233	307	3896	-41	-23	25	-143	-57	109	637	47746	637	58056389
224	289	3919	-42	-24	31	-143	-57	109	638	47845	638	58056390
228	293	3920	-41	-25	29	-140	-58	110	639	47896	639	58056395
219	309	3899	-41	-26	25	-140	-58	110	640	47995	640	58056395
218	300	3920	-40	-25	26	-144	-60	110	641	48046	641	58056429
208	296	3916	-42	-26	28	-144	-60	110	642	48145	642	58056430
234	294	3920	-44	-26	26	-138	-56	116	643	48196	643	58056431
224	307	3914	-43	-25	28	-138	-56	116	644	48295	644	58056434
203	310	3914	-41	-26	28	-141	-63	113	645	48346	645	58056434
211	290	3907	-41	-30	25	-141	-63	113	646	48445	646	58056437
219	306	3901	-42	-26	28	-144	-60	112	647	48496	647	58056438
240	305	3901	-43	-26	28	-144	-60	112	648	48595	648	58056439
218	289	3910	-41	-26	26	-144	-64	106	649	48646	649	58056446
210	298	3920	-45	-26	28	-144	-64	106	650	48745	650	58056447
224	302	3920	-42	-27	29	-141	-59	113	651	48796	651	58056456
216	289	3893	-42	-25	26	-141	-59	113	652	48895	652	58056456
234	302	3917	-43	-25	25	-142	-60	114	653	48946	653	58056459
217	301	3936	-42	-25	28	-142	-60	114	654	49045	654	58056509
234	294	3907	-40	-25	25	-138	-60	110	655	49096	655	58056510
229	313	3914	-43	-25	25	-138	-60	110	656	49195	656	58056513
243	299	3927	-40	-26	28	-141	-57	111	657	49246	657	58056513
219	296	3889	-44	-24	28	-141	-57	111	658	49345	658	58056515
234	295	3897	-44	-25	28	-140	-58	110	659	49396	659	58056517
247	291	3916	-41	-27	27	-140	-58	110	660	49495	660	58056517
229	293	3895	-41	-26	28	-142	-60	106	661	49546	661	58056521
226	292	3906	-42	-23	25	-142	-60	106	662	49645	662	58056521
233	304	3919	-40	-25	28	-143	-61	111	663	49696	663	58056523
232	307	3910	-43	-27	27	-143	-61	111	664	49795	664	58056524
222	294	3892	-43	-27	26	-143	-61	115	665	49846	665	58056524
230	301	3910	-45	-24	29	-143	-61	115	666	49945	666	58056528
224	287	3924	-44	-24	25	-138	-60	114	667	49996	667	58056529
227	311	3915	-41	-24	25	-138	-60	114	668	50095	668	58056530
218	306	3911	-39	-26	29	-145	-61	111	669	50146	669	58056563
237	302	3902	-42	-25	28	-145	-61	111	670	50245	670	58056564
237	294	3902	-43	-24	26	-144	-60	114	671	50296	671	58056567
217	291	3911	-44	-26	26	-144	-60	114	672	50395	672	58056567
237	300	3898	-42	-26	28	-141	-59	107	673	50446	673	58056571
235	304	3921	-42	-23	26	-141	-59	107	674	50545	674	58056571
223	303	3905	-43	-26	28	-138	-60	108	675	50596	675	58056573
230	302	3898	-42	-25	28	-138	-60	108	676	50695	676	58056579
230	301	3925	-41	-25	26	-142	-60	112	677	50746	677	58056580
216	292	3913	-43	-23	28	-142	-60	112	678	50845	678	58056614
225	301	3906	-41	-26	31	-144	-62	112	679	50896	679	58056614
220	285	3892	-44	-26	25	-144	-62	112	680	50995	680	58056617
211	298	3887	-42	-22	27	-141	-63	107	681	51046	681	58056618
232	305	3895	-42	-26	28	-141	-63	107	682	51145	682	58056618
211	301	3908	-41	-27	26	-142	-58	104	683	51196	683	58056622
220	309	3919	-43	-24	25	-142	-58	104	684	51295	684	58056622
204	296	3885	-44	-26	27	-142	-56	112	685	51346	685	58056624
229	305	3914	-45	-21	24	-142	-56	112	686	51445	686	58056629
222	301	3907	-41	-24	27	-145	-65	115	687	51496	687	58056631
227	303	3912	-41	-25	29	-145	-65	115	688	51595	688	58056640
216	285	3892	-43	-23	27	-141	-61	113	689	51646	689	58056640
215	293	3894	-45	-25	28	-141	-61	113	690	51745	690	58056643
209	289	3914	-45	-26	28	-136	-66	112	691	51796	691	58056676
242	309	3896	-43	-22	25	-136	-66	112	692	51895	692	58056676
224	290	3915	-42	-24	27	-139	-69	117	693	51946	693	58056681
213	302	3912	-42	-26	28	-139	-69	117	694	52045	694	58056681
240	291	3920	-42	-30	26	-145	-57	111	695	52096	695	58056683
230	286	3914	-41	-26	28	-145	-57	111	696	52195	696	58056685
214	300	3927	-41	-26	29	-144	-58	108	697	52246	697	58056693
219	290	3920	-41	-28	28	-144	-58	108	698	52345	698	58056694
234	297	3895	-42	-24	26	-140	-62	114	699	52396	699	58056696
224	292	3913	-45	-25	26	-140	-62	114	700	52495	700	58056696
213	284	3922	-42	-27	27	-135	-63	115	701	52546	701	58056723
239	293	3889	-43	-22	26	-135	-63	115	702	52645	702	58056723
216	290	3901	-42	-24	27	-137	-59	113	703	52696	703	58056727
216	299	3920	-43	-25	27	-137	-59	113	704	52795	704	58056727
217	298	3926	-43	-28	26	-144	-56	108	705	52846	705	58056731
222	319	3909	-44	-25	27	-144	-56	108	706	52945	706	58056731
235	308	3902	-42	-27	28	-142	-58	108	707	52996	707	58056733
234	294	3913	-42	-24	29	-142	-58	108	708	53095	708	58056738
240	295	3895	-41	-24	29	-139	-65	111	709	53146	709	58056739
225	307	3906	-44	-26	27	-139	-65	111	710	53245	710	58056773
213	312	3916	-41	-24	25	-141	-59	119	711	53296	711	58056773
239	290	3903	-44	-26	26	-141	-59	119	712	53395	712	58056775
221	312	3900	-42	-26	24	-141	-61	113	713	53446	713	58056777
243	302	3889	-43	-24	25	-141	-61	113	714	53545	714	58056777
225	303	3923	-41	-26	30	-139	-63	109	715	53596	715	58056780
227	290	3914	-40	-25	26	-139	-63	109	716	53695	716	58056781
205	299	3919	-39	-28	26	-140	-60	106	717	53746	717	58056783
244	316	3911	-42	-26	27	-140	-60	106	718	53845	718	58056788
232	304	3900	-43	-22	25	-141	-63	111	719	53896	719	58056788
242	309	3919	-44	-25	26	-141	-63	111	720	53995	720	58056798
216	303	3911	-43	-27	26	-140	-62	112	721	54046	721	58056799
215	294	3919	-45	-21	26	-140	-62	112	722	54145	722	58056802
224	293	3900	-42	-24	25	-141	-63	113	723	54196	723	58056835
237	300	3900	-41	-26	27	-141	-63	113	724	54295	724	58056838
237	296	3900	-40	-23	28	-147	-57	115	725	54346	725	58056839
236	293	3911	-43	-25	25	-147	-57	115	726	54445	726	58056839
222	300	3901	-40	-25	27	-141	-61	107	727	54496	727	58056841
225	308	3909	-41	-25	30	-141	-61	107	728	54595	728	58056842
223	304	3930	-41	-24	29	-144	-56	106	729	54646	729	58056843
216	301	3913	-43	-23	24	-144	-56	106	730	54745	730	58056847
233	307	3908	-41	-24	27	-140	-62	108	731	54796	731	58056847
235	299	3902	-39	-25	25	-140	-62	108	732	54895	732	58056849
213	289	3915	-40	-26	27	-138	-66	116	733	54946	733	58056882
209	289	3901	-44	-24	28	-138	-66	116	734	55045	734	58056883
226	297	3935	-43	-27	26	-142	-62	108	735	55096	735	58056889
235	296	3904	-42	-25	25	-142	-62	108	736	55195	736	58056890
222	319	3923	-41	-26	29	-143	-61	113	737	55246	737	58056891
216	315	3922	-44	-25	27	-143	-61	113	738	55345	738	58056892
225	282	3914	-42	-25	27	-144	-58	104	739	55396	739	58056893
227	307	3924	-45	-25	30	-144	-58	104	740	55495	740	58056897
217	308	3919	-42	-24	26	-138	-62	110	741	55546	741	58056898
235	315	3910	-42	-24	25	-138	-62	110	742	55645	742	58056932
212	292	3913	-40	-25	27	-139	-65	121	743	55696	743	58056932
230	327	3917	-44	-24	25	-139	-65	121	744	55795	744	58056934
221	301	3933	-43	-26	27	-136	-58	116	745	55846	745	58056936
219	306	3920	-45	-24	27	-136	-58	116	746	55945	746	58056937
229	303	3912	-42	-25	26	-145	-61	109	747	55996	747	58056939
222	316	3899	-41	-23	26	-145	-61	109	748	56095	748	58056941
224	294	3918	-41	-26	28	-146	-64	110	749	56146	749	58056942
232	297	3903	-40	-27	28	-146	-64	110	750	56245	750	58056948
234	305	3915	-41	-26	25	-139	-61	113	751	56296	751	58056950
231	300	3916	-42	-23	26	-139	-61	113	752	56395	752	58056982
218	297	3911	-42	-28	25	-141	-65	113	753	56446	753	58056982
223	286	3890	-41	-25	24	-141	-65	113	754	56545	754	58056984
232	286	3896	-40	-26	28	-143	-63	111	755	56596	755	58056985
208	300	3938	-42	-23	27	-143	-63	111	756	56695	756	58056986
206	287	3932	-43	-25	25	-137	-61	109	757	56746	757	58056989
226	295	3890	-47	-26	25	-137	-61	109	758	56845	758	58056990
211	283	3914	-42	-27	29	-138	-60	110	759	56896	759	58056992
224	298	3909	-44	-25	26	-138	-60	110	760	56995	760	58056997
224	290	3906	-41	-25	28	-142	-64	114	761	57046	761	58056997
218	298	3910	-41	-25	29	-142	-64	114	762	57145	762	58057007
217	311	3924	-42	-26	28	-145	-63	113	763	57196	763	58057008
244	300	3923	-42	-25	28	-145	-63	113	764	57295	764	58057009
214	302	3917	-43	-28	29	-135	-61	115	765	57346	765	58057042
240	304	3900	-41	-26	26	-135	-61	115	766	57445	766	58057042
229	291	3901	-41	-23	24	-143	-69	109	767	57496	767	58057046
209	291	3885	-41	-27	28	-143	-69	109	768	57595	768	58057046
226	300	3899	-42	-28	26	-138	-60	112	769	57646	769	58057049
213	302	3897	-44	-26	28	-138	-60	112	770	57745	770	58057050
226	290	3902	-42	-26	30	-140	-60	112	771	57796	771	58057052
227	292	3930	-46	-27	29	-140	-60	112	772	57895	772	58057057
232	305	3902	-43	-28	26	-136	-64	112	773	57946	773	58057058
217	310	3898	-41	-26	28	-136	-64	112	774	58045	774	58057092
213	299	3917	-38	-25	25	-139	-59	115	775	58096	775	58057092
214	310	3905	-42	-26	23	-139	-59	115	776	58195	776	58057094
236	296	3919	-42	-27	29	-137	-65	113	777	58246	777	58057097
228	299	3917	-44	-27	25	-137	-65	113	778	58345	778	58057098
216	293	3922	-44	-23	25	-144	-52	106	779	58396	779	58057100
223	289	3907	-45	-24	28	-144	-52	106	780	58495	780	58057100
218	286	3925	-43	-25	26	-140	-58	112	781	58546	781	58057102
225	313	3914	-44	-27	23	-140	-58	112	782	58645	782	58057107
218	299	3910	-44	-26	28	-141	-57	109	783	58696	783	58057109
230	293	3899	-44	-26	27	-141	-57	109	784	58795	784	58057150
245	303	3913	-42	-23	26	-137	-59	111	785	58846	785	58057159
218	297	3899	-45	-24	27	-137	-59	111	786	58945	786	58057160
226	300	3922	-44	-27	29	-138	-60	108	787	58996	787	58057160
221	286	3922	-42	-26	28	-138	-60	108	788	59095	788	58057161
222	305	3913	-41	-27	26	-146	-60	110	789	59146	789	58057162
217	288	3891	-44	-25	29	-146	-60	110	790	59245	790	58057162
229	299	3908	-42	-23	23	-145	-55	107	791	59296	791	58057163
235	307	3911	-42	-24	27	-145	-55	107	792	59395	792	58057163
218	296	3931	-46	-28	27	-143	-59	113	793	59446	793	58057164
225	297	3926	-43	-25	24	-143	-59	113	794	59545	794	58057166
227	287	3917	-39	-27	27	-139	-65	115	795	59596	795	58057168
241	313	3924	-43	-24	28	-139	-65	115	796	59695	796	58057169
225	310	3909	-41	-25	25	-143	-63	109	797	59746	797	58057201
213	304	3912	-45	-23	26	-143	-63	109	798	59845	798	58057201
216	283	3916	-41	-24	25	-141	-57	111	799	59896	799	58057204
233	305	3924	-42	-25	25	-141	-57	111	800	59995	800	58057204
209	310	3924	-43	-26	27	-143	-59	113	801	60046	801	58057208
235	300	3902	-42	-24	28	-143	-59	113	802	60145	802	58057208
212	289	3900	-42	-29	25	-147	-61	107	803	60196	803	58057210
232	285	3874	-42	-28	27	-147	-61	107	804	60295	804	58057217
254	289	3977	-40	-28	27	-141	-65	115	805	60346	805	58057217
213	298	3965	-42	-20	23	-141	-65	115	806	60445	806	58057250
227	291	3857	-44	-21	24	-139	-65	115	807	60496	807	58057251
238	307	3942	-43	-27	28	-139	-65	115	808	60595	808	58057253
246	296	3987	-41	-25	25	-140	-62	114	809	60646	809	58057254
226	304	3875	-45	-23	27	-140	-62	114	810	60745	810	58057255
213	302	3876	-42	-25	29	-142	-58	106	811	60796	811	58057258
220	294	3895	-44	-25	26	-142	-58	106	812	60895	812	58057258
229	298	3914	-42	-29	27	-140	-58	108	813	60946	813	58057260
231	321	3901	-43	-24	27	-140	-58	108	814	61045	814	58057266
220	288	3899	-43	-26	27	-141	-63	117	815	61096	815	58057267
233	299	3929	-43	-28	27	-141	-63	117	816	61195	816	58057276
206	281	3923	-42	-25	28	-143	-65	115	817	61246	817	58057277
214	302	3932	-44	-25	29	-143	-65	115	818	61345	818	58057279
216	306	3905	-42	-25	26	-138	-64	112	819	61396	819	58057312
225	303	3892	-42	-26	27	-138	-64	112	820	61495	820	58057312
221	310	3907	-39	-25	28	-138	-62	112	821	61546	821	58057316
207	314	3891	-40	-25	26	-138	-62	112	822	61645	822	58057317
222	310	3920	-41	-24	29	-139	-57	105	823	61696	823	58057318
216	308	3880	-43	-26	27	-139	-57	105	824	61795	824	58057320
222	284	3899	-42	-28	24	-142	-58	110	825	61846	825	58057320
242	311	3909	-42	-26	26	-142	-58	110	826	61945	826	58057324
234	299	3881	-42	-27	29	-142	-64	112	827	61996	827	58057324
236	309	3906	-39	-28	25	-142	-64	112	828	62095	828	58057327
237	308	3919	-41	-27	28	-134	-68	112	829	62146	829	58057359
214	296	3893	-43	-25	31	-134	-68	112	830	62245	830	58057360
225	288	3893	-41	-27	27	-140	-62	108	831	62296	831	58057363
226	316	3939	-42	-22	27	-140	-62	108	832	62395	832	58057363
236	297	3908	-41	-24	29	-139	-59	113	833	62446	833	58057366
239	300	3921	-40	-24	27	-139	-59	113	834	62545	834	58057367
216	301	3950	-38	-27	25	-145	-53	109	835	62596	835	58057369
