Accl X	Accl Y	Accl Z	Gyro X	Gyro Y	Gyro Z	Mag X	Mag Y	Mag Z	RPkt#	Rtime	LPkt#	Ltime
96	-587	3889	-42	-27	26	62	-24	128	0	0	0	57532702
90	-600	3884	-44	-26	28	62	-24	128	1	99	1	57532706
95	-592	3919	-43	-26	25	55	-21	121	2	150	2	57532707
84	-588	3895	-43	-24	25	55	-21	121	3	249	3	57532707
86	-590	3892	-40	-24	30	54	-20	118	4	300	4	57532710
70	-587	3886	-43	-26	26	54	-20	118	5	399	5	57532710
87	-590	3873	-41	-25	26	51	-15	117	6	450	6	57532713
85	-596	3880	-41	-25	27	51	-15	117	7	549	7	57532717
81	-594	3853	-45	-23	27	56	-26	122	8	600	8	57532718
73	-607	3879	-44	-22	25	56	-26	122	9	699	9	57532752
79	-599	3889	-42	-24	28	55	-23	123	10	750	10	57532753
88	-583	3891	-42	-24	27	55	-23	123	11	849	11	57532755
94	-588	3914	-39	-24	26	51	-23	123	12	900	12	57532756
89	-582	3872	-42	-24	27	51	-23	123	13	999	13	57532756
91	-597	3890	-43	-22	28	53	-19	115	14	1050	14	57532760
101	-595	3895	-41	-20	26	53	-19	115	15	1149	15	57532760
90	-603	3880	-40	-24	26	55	-19	117	16	1200	16	57532762
96	-613	3904	-39	-25	28	55	-19	117	17	1299	17	57532765
88	-594	3903	-39	-25	27	60	-20	122	18	1350	18	57532765
85	-607	3882	-41	-25	27	60	-20	122	19	1449	19	57532800
84	-599	3894	-41	-24	28	55	-23	125	20	1500	20	57532801
89	-591	3860	-42	-23	25	55	-23	125	21	1599	21	57532807
64	-595	3891	-39	-24	30	56	-22	124	22	1650	22	57532809
76	-605	3866	-39	-25	29	56	-22	124	23	1749	23	57532809
98	-597	3873	-40	-26	26	58	-20	116	24	1800	24	57532810
85	-592	3881	-42	-25	29	58	-20	116	25	1899	25	57532810
78	-603	3885	-44	-25	28	54	-26	116	26	1950	26	57532818
86	-596	3903	-44	-24	25	54	-26	116	27	2049	27	57532818
92	-605	3874	-44	-23	26	55	-23	119	28	2100	28	57532819
89	-591	3906	-43	-24	28	55	-23	119	29	2199	29	57532849
87	-594	3907	-43	-27	26	52	-24	118	30	2250	30	57532849
80	-588	3882	-43	-24	25	52	-24	118	31	2349	31	57532852
103	-599	3886	-43	-23	29	54	-20	126	32	2400	32	57532852
100	-590	3905	-42	-25	27	54	-20	126	33	2499	33	57532855
79	-579	3882	-40	-25	28	54	-20	120	34	2550	34	57532856
56	-584	3905	-43	-25	29	54	-20	120	35	2649	35	57532857
84	-597	3884	-42	-26	25	54	-16	120	36	2700	36	57532864
80	-599	3896	-42	-25	26	54	-16	120	37	2799	37	57532864
89	-602	3890	-42	-26	29	55	-21	123	38	2850	38	57532866
97	-597	3883	-41	-27	26	55	-21	123	39	2949	39	57532899
83	-594	3884	-41	-24	25	53	-19	125	40	3000	40	57532899
97	-596	3881	-43	-25	27	53	-19	125	41	3099	41	57532903
84	-590	3879	-42	-24	27	52	-22	120	42	3150	42	57532903
83	-583	3866	-43	-25	26	52	-22	120	43	3249	43	57532905
74	-581	3893	-40	-23	27	50	-22	122	44	3300	44	57532906
78	-600	3877	-41	-28	26	50	-22	122	45	3398	45	57532907
92	-611	3894	-41	-27	23	52	-18	118	46	3449	46	57532936
94	-588	3895	-41	-22	27	52	-18	118	47	3548	47	57532937
83	-588	3864	-43	-26	27	56	-18	124	48	3599	48	57532937
95	-600	3900	-42	-25	26	56	-18	124	49	3698	49	57532939
83	-600	3886	-41	-25	30	56	-16	120	50	3749	50	57532939
82	-589	3866	-42	-24	29	56	-16	120	51	3848	51	57532942
77	-590	3881	-41	-26	26	51	-21	115	52	3899	52	57532943
73	-584	3885	-41	-25	28	51	-21	115	53	3998	53	57532948
72	-586	3887	-41	-24	28	56	-18	122	54	4049	54	57532950
87	-589	3872	-46	-24	25	56	-18	122	55	4148	55	57532952
88	-583	3910	-41	-24	27	55	-25	123	56	4199	56	57532986
86	-589	3894	-43	-23	29	55	-25	123	57	4298	57	57532986
70	-583	3882	-40	-26	27	58	-22	118	58	4349	58	57532990
76	-591	3869	-39	-25	31	58	-22	118	59	4448	59	57532990
80	-588	3881	-39	-24	29	50	-20	116	60	4499	60	57532992
92	-597	3878	-43	-24	28	50	-20	116	61	4598	61	57532994
81	-601	3890	-41	-25	28	48	-24	118	62	4649	62	57532994
76	-591	3887	-41	-25	29	48	-24	118	63	4748	63	57532997
77	-609	3897	-41	-25	28	55	-19	121	64	4799	64	57532998
74	-589	3887	-41	-28	29	55	-19	121	65	4898	65	57533001
104	-601	3908	-40	-25	29	57	-21	121	66	4949	66	57533035
80	-596	3870	-44	-25	24	57	-21	121	67	5048	67	57533035
58	-609	3890	-41	-24	25	55	-17	117	68	5099	68	57533039
88	-587	3884	-44	-21	30	55	-17	117	69	5198	69	57533039
78	-589	3874	-43	-25	28	49	-17	121	70	5249	70	57533041
86	-611	3899	-42	-24	26	49	-17	121	71	5348	71	57533042
80	-590	3877	-41	-26	28	54	-22	122	72	5399	72	57533042
73	-607	3907	-45	-26	26	54	-22	122	73	5498	73	57533046
99	-581	3896	-39	-26	27	57	-23	119	74	5549	74	57533047
88	-594	3878	-42	-28	28	57	-23	119	75	5648	75	57533050
90	-605	3894	-42	-24	29	58	-22	120	76	5699	76	57533086
70	-586	3886	-44	-26	29	58	-22	120	77	5798	77	57533087
87	-601	3889	-40	-25	29	51	-25	121	78	5849	78	57533087
64	-600	3881	-40	-25	29	51	-25	121	79	5948	79	57533088
88	-601	3872	-40	-23	25	52	-20	120	80	5999	80	57533091
71	-588	3903	-41	-25	30	52	-20	120	81	6098	81	57533091
96	-590	3896	-43	-26	30	54	-18	122	82	6149	82	57533093
79	-595	3893	-41	-23	27	54	-18	122	83	6248	83	57533095
85	-595	3898	-41	-25	29	56	-22	116	84	6299	84	57533095
74	-587	3864	-43	-27	27	56	-22	116	85	6398	85	57533106
72	-584	3883	-40	-26	24	59	-25	121	86	6449	86	57533106
108	-595	3883	-41	-24	27	59	-25	121	87	6548	87	57533110
79	-604	3880	-42	-24	28	58	-20	124	88	6599	88	57533143
108	-607	3873	-41	-27	29	58	-20	124	89	6698	89	57533143
91	-605	3887	-40	-25	28	58	-18	124	90	6749	90	57533146
96	-582	3878	-41	-26	30	58	-18	124	91	6848	91	57533146
86	-592	3887	-40	-27	28	53	-21	117	92	6899	92	57533148
91	-590	3884	-44	-25	29	53	-21	117	93	6998	93	57533150
97	-604	3870	-44	-23	30	52	-18	120	94	7049	94	57533150
85	-590	3901	-44	-24	25	52	-18	120	95	7148	95	57533155
60	-593	3895	-42	-25	30	53	-23	119	96	7199	96	57533157
64	-601	3878	-44	-26	29	53	-23	119	97	7298	97	57533159
79	-595	3901	-42	-28	27	58	-22	124	98	7349	98	57533191
60	-612	3907	-41	-25	29	58	-22	124	99	7448	99	57533191
106	-604	3907	-40	-25	28	52	-22	124	100	7499	100	57533195
69	-612	3905	-40	-25	24	52	-22	124	101	7598	101	57533195
85	-599	3869	-40	-26	26	57	-15	115	102	7649	102	57533197
58	-602	3886	-40	-25	28	57	-15	115	103	7748	103	57533199
110	-595	3891	-38	-24	25	54	-26	114	104	7799	104	57533199
65	-594	3874	-40	-25	28	54	-26	114	105	7898	105	57533204
54	-603	3888	-40	-24	26	58	-22	126	106	7949	106	57533204
78	-590	3896	-39	-22	25	58	-22	126	107	8048	107	57533206
91	-583	3879	-39	-23	25	59	-25	127	108	8099	108	57533239
92	-577	3878	-41	-22	25	59	-25	127	109	8198	109	57533240
67	-587	3877	-39	-24	23	56	-24	126	110	8249	110	57533242
59	-590	3883	-41	-23	23	56	-24	126	111	8348	111	57533243
69	-587	3888	-40	-25	31	60	-16	120	112	8399	112	57533246
64	-580	3914	-42	-24	28	60	-16	120	113	8498	113	57533246
59	-581	3873	-40	-23	25	56	-20	122	114	8549	114	57533249
97	-584	3885	-43	-26	30	56	-20	122	115	8648	115	57533255
89	-593	3903	-44	-27	26	56	-26	124	116	8699	116	57533256
73	-597	3922	-43	-24	28	56	-26	124	117	8798	117	57533290
81	-588	3892	-40	-25	28	53	-25	121	118	8849	118	57533291
73	-586	3886	-43	-25	29	53	-25	121	119	8948	119	57533293
81	-591	3905	-42	-23	27	59	-19	123	120	8999	120	57533294
64	-608	3906	-44	-26	28	59	-19	123	121	9098	121	57533298
76	-611	3900	-43	-28	26	54	-22	122	122	9149	122	57533298
63	-602	3882	-43	-25	25	54	-22	122	123	9248	123	57533301
60	-580	3891	-42	-28	29	52	-20	112	124	9299	124	57533302
93	-581	3877	-45	-24	30	52	-20	112	125	9398	125	57533303
82	-587	3877	-42	-25	30	57	-17	127	126	9449	126	57533305
51	-595	3864	-49	-24	36	57	-17	127	127	9548	127	57533337
114	-579	3901	-46	-25	40	54	-24	124	128	9599	128	57533338
91	-578	3911	-44	-24	36	54	-24	124	129	9698	129	57533340
78	-592	3901	-54	-23	40	53	-19	123	130	9749	130	57533341
87	-592	3890	-50	-20	41	53	-19	123	131	9848	131	57533343
84	-579	3895	-48	-22	41	52	-18	112	132	9899	132	57533346
72	-592	3883	-54	-20	47	52	-18	112	133	9998	133	57533346
-40	-564	3776	-72	-20	47	51	-21	115	134	10049	134	57533348
75	-418	3862	-56	-7	61	51	-21	115	135	10148	135	57533356
90	-502	4064	-46	-15	72	56	-20	124	136	10199	136	57533356
53	-776	3982	-111	-25	81	56	-20	124	137	10298	137	57533389
66	-605	3953	-39	-15	74	60	-22	124	138	10349	138	57533390
63	-485	3929	-12	-17	66	60	-22	124	139	10448	139	57533392
99	-751	3900	-85	-20	75	55	-19	119	140	10499	140	57533393
79	-706	3846	-49	-26	77	55	-19	119	141	10598	141	57533393
-8	-672	3766	-57	-32	72	55	-17	119	142	10649	142	57533396
23	-695	3813	-47	-21	65	55	-17	119	143	10748	143	57533397
35	-663	3926	-21	-23	48	55	-23	115	144	10799	144	57533400
57	-722	3916	-61	-20	56	55	-23	115	145	10898	145	57533400
65	-581	3929	-18	-23	59	55	-19	121	146	10949	146	57533404
50	-618	3974	-30	-28	51	55	-19	121	147	11048	147	57533436
80	-698	3936	-49	-26	45	55	-25	125	148	11099	148	57533440
97	-515	3902	3	-27	36	55	-25	125	149	11198	149	57533441
124	-513	3842	-29	-29	38	60	-22	122	150	11249	150	57533441
103	-558	3850	-40	-32	38	60	-22	122	151	11348	151	57533442
76	-596	3866	-39	-36	35	55	-21	121	152	11399	152	57533444
103	-564	3848	-34	-29	28	55	-21	121	153	11498	153	57533444
69	-481	3871	-17	-31	23	49	-19	119	154	11549	154	57533449
93	-548	3896	-49	-32	33	49	-19	119	155	11648	155	57533449
90	-575	3913	-47	-29	33	52	-20	126	156	11699	156	57533452
106	-528	3916	-35	-29	28	52	-20	126	157	11798	157	57533486
111	-575	3926	-53	-24	32	47	-25	121	158	11849	158	57533488
100	-589	3904	-48	-26	29	47	-25	121	159	11948	159	57533489
79	-594	3813	-54	-28	28	54	-22	124	160	11999	160	57533489
80	-538	3832	-52	-24	34	54	-22	124	161	12098	161	57533491
66	-577	3874	-64	-26	36	57	-23	121	162	12149	162	57533493
56	-625	3882	-72	-21	36	57	-23	121	163	12248	163	57533493
-3	-538	3875	-46	-26	45	60	-20	112	164	12299	164	57533498
-189	-446	3795	-61	-25	61	60	-20	112	165	12398	165	57533498
-202	-356	3833	-76	-27	90	61	-23	129	166	12449	166	57533501
61	-302	3967	-70	-24	140	61	-23	129	167	12548	167	57533535
-109	-624	4074	-143	-46	168	55	-21	123	168	12599	168	57533536
-103	-581	3879	-110	-40	197	55	-21	123	169	12698	169	57533537
-19	-371	3853	-49	-38	214	57	-23	121	170	12749	170	57533539
-66	-700	3926	-115	-49	238	57	-23	121	171	12848	171	57533540
8	-774	3869	-96	-46	273	56	-22	120	172	12899	172	57533541
-44	-569	3856	-46	-51	299	56	-22	120	173	12998	173	57533545
1	-642	3923	-81	-45	333	54	-24	120	174	13049	174	57533573
1	-683	3936	-75	-45	357	54	-24	120	175	13148	175	57533573
-70	-749	3901	-72	-50	381	60	-22	122	176	13199	176	57533576
-75	-761	3884	-73	-54	416	60	-22	122	177	13298	177	57533576
-130	-583	3888	-33	-68	440	55	-15	117	178	13349	178	57533579
-143	-673	3886	-67	-71	478	55	-15	117	179	13448	179	57533580
-180	-757	3877	-69	-80	515	54	-14	114	180	13499	180	57533580
-208	-694	3880	-52	-87	557	54	-14	114	181	13598	181	57533583
-235	-676	3859	-60	-95	600	54	-22	118	182	13649	182	57533584
-275	-649	3885	-45	-103	645	54	-22	118	183	13748	183	57533587
-231	-701	3902	-57	-115	691	51	-23	123	184	13799	184	57533621
-261	-749	3884	-62	-124	737	51	-23	123	185	13898	185	57533622
-272	-694	3880	-36	-135	784	54	-20	128	186	13949	186	57533626
-295	-683	3891	-38	-151	832	54	-20	128	187	14048	187	57533627
-288	-705	3895	-43	-166	882	58	-12	116	188	14099	188	57533628
-319	-712	3916	-39	-178	938	58	-12	116	189	14198	189	57533628
-332	-700	3904	-32	-194	987	51	-17	117	190	14249	190	57533629
-336	-675	3866	-26	-208	1046	51	-17	117	191	14348	191	57533632
-338	-686	3863	-28	-225	1108	60	-20	116	192	14399	192	57533632
-359	-686	3862	-29	-233	1173	60	-20	116	193	14498	193	57533636
-381	-703	3904	-29	-249	1240	58	-20	118	194	14549	194	57533671
-389	-684	3868	-25	-262	1314	58	-20	118	195	14648	195	57533672
-407	-672	3891	-26	-276	1387	52	-18	124	196	14699	196	57533675
-390	-688	3905	-24	-288	1463	52	-18	124	197	14798	197	57533676
-383	-698	3908	-20	-302	1544	55	-15	119	198	14849	198	57533677
-343	-710	3894	-18	-315	1625	55	-15	119	199	14948	199	57533678
-330	-724	3903	-12	-328	1708	52	-14	118	200	14999	200	57533678
-322	-741	3906	-11	-339	1790	52	-14	118	201	15098	201	57533681
-317	-780	3904	-4	-350	1874	60	-22	118	202	15149	202	57533682
-304	-778	3887	4	-356	1953	60	-22	118	203	15248	203	57533717
-270	-806	3904	10	-365	2036	56	-18	124	204	15299	204	57533718
-255	-805	3877	17	-375	2115	56	-18	124	205	15398	205	57533718
-250	-817	3854	21	-383	2193	57	-15	123	206	15449	206	57533721
-258	-815	3833	25	-389	2274	57	-15	123	207	15548	207	57533722
-254	-824	3871	27	-397	2355	53	-13	121	208	15599	208	57533725
-235	-816	3854	25	-397	2436	53	-13	121	209	15698	209	57533725
-237	-816	3854	23	-401	2512	57	-13	121	210	15749	210	57533728
-223	-805	3870	23	-404	2593	57	-13	121	211	15848	211	57533733
-209	-780	3888	24	-410	2669	55	-15	121	212	15899	212	57533733
-199	-783	3876	28	-413	2744	55	-15	121	213	15998	213	57533743
-212	-760	3876	30	-420	2818	55	-17	121	214	16049	214	57533751
-187	-771	3884	33	-426	2891	55	-17	121	215	16148	215	57533751
-199	-781	3890	36	-433	2964	49	-17	119	216	16199	216	57533779
-211	-771	3874	38	-440	3035	49	-17	119	217	16298	217	57533779
-200	-754	3874	39	-454	3099	52	-16	122	218	16349	218	57533783
-220	-767	3871	35	-462	3163	52	-16	122	219	16448	219	57533783
-232	-764	3854	35	-468	3234	54	-8	118	220	16499	220	57533785
-237	-763	3852	34	-476	3284	54	-8	118	221	16598	221	57533786
-245	-755	3849	35	-485	3346	53	-9	119	222	16649	222	57533787
-265	-746	3854	33	-492	3409	53	-9	119	223	16748	223	57533791
-266	-755	3851	33	-505	3463	56	-8	126	224	16799	224	57533792
-253	-756	3854	30	-513	3520	56	-8	126	225	16898	225	57533795
-267	-744	3854	29	-529	3578	54	-10	128	226	16949	226	57533828
-274	-778	3852	27	-540	3632	54	-10	128	227	17048	227	57533828
-268	-784	3874	29	-553	3686	52	-2	124	228	17099	228	57533831
-280	-813	3837	25	-566	3742	52	-2	124	229	17198	229	57533831
-273	-821	3879	23	-580	3795	49	-5	117	230	17249	230	57533834
-257	-837	3856	19	-591	3846	49	-5	117	231	17348	231	57533837
-247	-875	3849	22	-603	3904	54	-2	118	232	17399	232	57533838
-238	-893	3853	22	-615	3960	54	-2	118	233	17498	233	57533840
-212	-895	3875	24	-630	4012	47	-3	125	234	17549	234	57533840
-216	-917	3856	27	-638	4071	47	-3	125	235	17648	235	57533875
-212	-942	3870	32	-644	4125	56	-4	126	236	17699	236	57533876
-202	-955	3852	36	-656	4177	56	-4	126	237	17798	237	57533878
-218	-957	3872	40	-666	4234	48	-4	126	238	17849	238	57533879
-198	-978	3851	42	-676	4291	48	-4	126	239	17948	239	57533879
-195	-983	3831	48	-685	4348	54	2	122	240	17999	240	57533882
-169	-981	3820	51	-691	4405	54	2	122	241	18098	241	57533883
-176	-978	3873	57	-701	4463	49	-1	123	242	18149	242	57533885
-173	-1003	3858	61	-708	4518	49	-1	123	243	18248	243	57533891
-159	-993	3837	65	-712	4578	53	1	123	244	18299	244	57533891
-139	-996	3854	65	-716	4639	53	1	123	245	18398	245	57533901
-141	-998	3844	69	-723	4694	49	-1	123	246	18448	246	57533901
-117	-999	3833	70	-726	4752	49	-1	123	247	18547	247	57533913
-105	-987	3825	74	-730	4810	50	2	128	248	18598	248	57533913
-95	-997	3830	73	-737	4862	50	2	128	249	18697	249	57533916
-114	-988	3831	76	-745	4918	46	2	124	250	18748	250	57533949
-103	-976	3834	76	-750	4973	46	2	124	251	18847	251	57533949
-97	-973	3843	79	-757	5022	43	5	127	252	18898	252	57533952
-98	-950	3835	78	-762	5075	43	5	127	253	18997	253	57533952
-117	-962	3834	76	-765	5129	45	13	123	254	19048	254	57533955
-116	-964	3831	74	-772	5181	45	13	123	255	19147	255	57533956
-111	-969	3827	72	-778	5230	45	9	123	256	19198	256	57533956
-103	-951	3829	69	-783	5283	45	9	123	257	19297	257	57533960
-118	-976	3824	67	-793	5335	46	10	124	258	19348	258	57533960
-123	-997	3821	62	-799	5383	46	10	124	259	19447	259	57533966
-121	-999	3825	65	-805	5435	43	7	129	260	19498	260	57533999
-131	-1027	3816	60	-812	5481	43	7	129	261	19597	261	57534000
-125	-1046	3806	62	-821	5528	45	17	123	262	19648	262	57534002
-136	-1053	3818	59	-830	5578	45	17	123	263	19747	263	57534003
-138	-1083	3839	60	-836	5625	36	16	130	264	19798	264	57534005
-118	-1097	3848	60	-844	5670	36	16	130	265	19897	265	57534007
-116	-1124	3830	63	-851	5715	37	13	121	266	19948	266	57534007
-108	-1128	3844	64	-858	5756	37	13	121	267	20047	267	57534010
-120	-1141	3829	67	-865	5797	35	13	127	268	20098	268	57534010
-92	-1167	3812	70	-874	5842	35	13	127	269	20197	269	57534014
-101	-1166	3802	75	-881	5882	35	19	129	270	20248	270	57534046
-74	-1175	3818	76	-885	5920	35	19	129	271	20347	271	57534047
-62	-1180	3813	79	-891	5964	39	17	135	272	20398	272	57534050
-53	-1191	3811	83	-896	6003	39	17	135	273	20497	273	57534050
-47	-1171	3808	86	-902	6040	35	27	127	274	20548	274	57534053
-27	-1169	3830	86	-906	6080	35	27	127	275	20647	275	57534054
-44	-1164	3821	86	-912	6116	34	26	128	276	20698	276	57534057
-44	-1167	3800	86	-920	6151	34	26	128	277	20796	277	57534066
-20	-1152	3810	92	-923	6194	32	28	126	278	20848	278	57534066
-29	-1149	3798	86	-926	6229	32	28	126	279	20947	279	57534094
-12	-1166	3830	85	-931	6262	30	20	128	280	20998	280	57534094
-23	-1147	3791	87	-935	6301	30	20	128	281	21097	281	57534096
-19	-1135	3801	86	-941	6337	30	24	128	282	21148	282	57534097
-37	-1146	3805	84	-946	6370	30	24	128	283	21247	283	57534098
-36	-1157	3777	81	-954	6411	26	22	128	284	21298	284	57534101
-48	-1152	3790	79	-958	6446	26	22	128	285	21397	285	57534101
-71	-1154	3806	78	-968	6482	23	25	127	286	21448	286	57534106
-69	-1173	3797	73	-976	6523	23	25	127	287	21547	287	57534109
-88	-1181	3779	72	-982	6563	18	24	128	288	21598	288	57534109
-110	-1185	3779	72	-986	6599	18	24	128	289	21697	289	57534123
-104	-1191	3775	66	-992	6643	24	20	134	290	21748	290	57534123
-114	-1201	3774	65	-997	6687	24	20	134	291	21847	291	57534127
-158	-1219	3779	64	-1008	6735	23	27	131	292	21898	292	57534136
-130	-1227	3809	61	-1015	6783	23	27	131	293	21997	293	57534149
-145	-1245	3809	64	-1027	6833	20	28	134	294	22048	294	57534170
-157	-1268	3803	63	-1028	6883	20	28	134	295	22146	295	57534170
-151	-1297	3827	64	-1038	6930	19	27	139	296	22197	296	57534172
-170	-1317	3817	68	-1048	6983	19	27	139	297	22296	297	57534174
-152	-1338	3830	72	-1057	7034	15	33	131	298	22347	298	57534174
-148	-1342	3809	74	-1066	7085	15	33	131	299	22446	299	57534177
-147	-1375	3792	78	-1076	7137	8	32	134	300	22497	300	57534178
-135	-1373	3803	80	-1083	7191	8	32	134	301	22596	301	57534181
-111	-1410	3803	86	-1092	7242	9	29	135	302	22647	302	57534181
-116	-1437	3802	87	-1100	7291	9	29	135	303	22746	303	57534185
-95	-1456	3812	97	-1109	7339	9	29	133	304	22797	304	57534212
-71	-1477	3809	100	-1118	7386	9	29	133	305	22896	305	57534213
-41	-1494	3822	106	-1125	7432	2	32	132	306	22947	306	57534216
-32	-1513	3791	110	-1129	7468	2	32	132	307	23046	307	57534216
12	-1527	3784	116	-1139	7507	3	33	131	308	23097	308	57534219
30	-1553	3772	121	-1141	7545	3	33	131	309	23196	309	57534220
56	-1563	3771	125	-1144	7578	-3	29	131	310	23247	310	57534220
75	-1568	3768	131	-1147	7602	-3	29	131	311	23346	311	57534231
116	-1571	3755	139	-1152	7628	-2	32	140	312	23397	312	57534231
150	-1574	3742	138	-1154	7650	-2	32	140	313	23496	313	57534234
157	-1567	3754	139	-1158	7667	-2	28	142	314	23547	314	57534266
171	-1581	3745	144	-1161	7686	-2	28	142	315	23646	315	57534267
198	-1567	3762	148	-1162	7696	-5	29	147	316	23697	316	57534270
236	-1564	3795	153	-1163	7699	-5	29	147	317	23796	317	57534270
282	-1560	3802	160	-1165	7708	-12	32	134	318	23847	318	57534273
291	-1559	3797	167	-1163	7709	-12	32	134	319	23946	319	57534274
322	-1533	3732	178	-1163	7701	-9	31	137	320	23997	320	57534274
359	-1538	3734	171	-1156	7695	-9	31	137	321	24096	321	57534279
349	-1527	3712	172	-1149	7683	-15	29	147	322	24147	322	57534279
357	-1436	3711	177	-1138	7674	-15	29	147	323	24246	323	57534282
384	-1355	3729	178	-1131	7663	-13	25	145	324	24297	324	57534315
393	-1354	3752	163	-1124	7655	-13	25	145	325	24396	325	57534315
371	-1304	3775	164	-1120	7642	-17	33	141	326	24447	326	57534321
362	-1236	3791	168	-1121	7629	-17	33	141	327	24546	327	57534321
366	-1194	3810	155	-1120	7620	-22	28	140	328	24597	328	57534342
364	-1177	3787	149	-1117	7605	-22	28	140	329	24696	329	57534344
341	-1180	3808	139	-1118	7595	-23	29	135	330	24747	330	57534347
329	-1161	3801	132	-1115	7586	-23	29	135	331	24846	331	57534348
308	-1167	3792	128	-1112	7574	-26	24	146	332	24897	332	57534348
303	-1191	3760	110	-1099	7567	-26	24	146	333	24996	333	57534351
304	-1182	3747	107	-1095	7560	-22	32	146	334	25047	334	57534352
282	-1197	3757	96	-1094	7545	-22	32	146	335	25146	335	57534353
277	-1231	3772	83	-1091	7534	-29	29	143	336	25197	336	57534356
266	-1260	3771	80	-1087	7522	-29	29	143	337	25296	337	57534357
269	-1297	3766	73	-1082	7507	-29	27	143	338	25347	338	57534366
238	-1300	3788	72	-1085	7491	-29	27	143	339	25445	339	57534379
247	-1341	3816	72	-1088	7477	-28	28	144	340	25496	340	57534380
219	-1367	3822	71	-1083	7463	-28	28	144	341	25595	341	57534402
193	-1384	3806	81	-1085	7442	-33	25	151	342	25646	342	57534403
204	-1431	3779	83	-1088	7428	-33	25	151	343	25745	343	57534407
212	-1436	3781	84	-1089	7409	-35	29	149	344	25796	344	57534407
187	-1452	3782	88	-1092	7387	-35	29	149	345	25894	345	57534408
196	-1455	3778	95	-1087	7370	-39	25	145	346	25946	346	57534410
206	-1447	3784	102	-1087	7351	-39	25	145	347	26045	347	57534410
205	-1437	3760	103	-1093	7331	-40	26	150	348	26096	348	57534413
232	-1428	3791	108	-1093	7314	-40	26	150	349	26195	349	57534417
235	-1419	3780	115	-1093	7297	-38	14	152	350	26246	350	57534417
261	-1385	3781	117	-1091	7279	-38	14	152	351	26345	351	57534451
253	-1383	3793	122	-1091	7265	-42	18	150	352	26396	352	57534452
280	-1340	3799	120	-1091	7251	-42	18	150	353	26495	353	57534455
287	-1322	3797	124	-1092	7236	-39	21	147	354	26546	354	57534455
302	-1302	3784	124	-1086	7225	-39	21	147	355	26645	355	57534458
326	-1295	3784	122	-1083	7212	-50	18	150	356	26696	356	57534459
329	-1275	3764	124	-1078	7201	-50	18	150	357	26795	357	57534459
337	-1277	3765	123	-1073	7192	-43	17	151	358	26846	358	57534462
350	-1244	3783	118	-1070	7182	-43	17	151	359	26944	359	57534462
333	-1227	3767	115	-1066	7167	-48	10	152	360	26995	360	57534465
339	-1242	3801	108	-1062	7159	-48	10	152	361	27094	361	57534499
334	-1236	3789	108	-1057	7150	-47	13	151	362	27145	362	57534499
321	-1233	3793	104	-1050	7137	-47	13	151	363	27243	363	57534502
312	-1227	3801	102	-1045	7130	-52	14	152	364	27295	364	57534502
307	-1245	3773	100	-1041	7122	-52	14	152	365	27394	365	57534506
289	-1244	3790	96	-1036	7108	-48	12	152	366	27445	366	57534506
292	-1247	3800	93	-1033	7096	-48	12	152	367	27544	367	57534508
278	-1257	3797	93	-1032	7089	-51	11	151	368	27595	368	57534513
271	-1251	3807	92	-1027	7075	-51	11	151	369	27694	369	57534514
264	-1270	3780	94	-1026	7062	-52	4	152	370	27745	370	57534525
245	-1258	3806	94	-1021	7055	-52	4	152	371	27844	371	57534525
231	-1270	3814	93	-1023	7035	-58	8	152	372	27895	372	57534528
231	-1283	3820	95	-1024	7022	-58	8	152	373	27994	373	57534560
222	-1272	3801	95	-1024	7011	-57	7	149	374	28045	374	57534561
206	-1284	3802	94	-1025	6993	-57	7	149	375	28144	375	57534566
218	-1270	3808	97	-1027	6977	-57	1	153	376	28194	376	57534567
213	-1276	3794	98	-1026	6964	-57	1	153	377	28293	377	57534568
202	-1263	3811	99	-1028	6949	-59	1	155	378	28343	378	57534568
219	-1264	3790	98	-1033	6931	-59	1	155	379	28442	379	57534569
210	-1264	3804	102	-1033	6917	-58	6	150	380	28493	380	57534573
216	-1261	3780	100	-1035	6904	-58	6	150	381	28592	381	57534573
223	-1264	3791	102	-1040	6885	-63	-3	151	382	28643	382	57534577
213	-1248	3824	101	-1036	6876	-63	-3	151	383	28742	383	57534609
224	-1249	3798	99	-1040	6863	-58	-2	148	384	28793	384	57534609
238	-1228	3809	101	-1038	6849	-58	-2	148	385	28891	385	57534612
233	-1216	3798	101	-1039	6836	-57	-1	151	386	28942	386	57534613
240	-1231	3774	98	-1036	6826	-57	-1	151	387	29041	387	57534616
254	-1212	3791	100	-1038	6810	-63	-5	157	388	29092	388	57534617
265	-1213	3807	98	-1035	6802	-63	-5	157	389	29191	389	57534619
244	-1209	3784	97	-1034	6789	-65	-7	147	390	29242	390	57534622
256	-1196	3805	97	-1031	6779	-65	-7	147	391	29341	391	57534622
268	-1212	3798	95	-1030	6765	-62	-10	154	392	29392	392	57534656
271	-1206	3799	92	-1033	6755	-62	-10	154	393	29490	393	57534656
293	-1204	3804	95	-1027	6743	-60	-14	160	394	29541	394	57534659
270	-1206	3794	93	-1023	6737	-60	-14	160	395	29640	395	57534660
279	-1209	3799	94	-1018	6728	-63	-13	149	396	29691	396	57534660
264	-1212	3793	92	-1015	6719	-63	-13	149	397	29790	397	57534663
287	-1204	3803	92	-1015	6709	-61	-17	149	398	29841	398	57534664
287	-1198	3814	91	-1013	6700	-61	-17	149	399	29939	399	57534667
270	-1219	3774	90	-1013	6689	-69	-17	153	400	29991	400	57534673
274	-1204	3792	92	-1007	6677	-69	-17	153	401	30090	401	57534673
268	-1212	3786	91	-1007	6670	-63	-23	151	402	30141	402	57534708
292	-1188	3802	90	-1005	6657	-63	-23	151	403	30240	403	57534708
249	-1214	3806	92	-1002	6650	-61	-19	157	404	30291	404	57534710
255	-1222	3804	91	-1002	6641	-61	-19	157	405	30390	405	57534711
244	-1211	3807	91	-1001	6630	-59	-19	153	406	30441	406	57534711
234	-1202	3802	89	-997	6619	-59	-19	153	407	30540	407	57534714
247	-1211	3799	91	-997	6611	-62	-24	154	408	30591	408	57534715
237	-1196	3787	90	-994	6599	-62	-24	154	409	30690	409	57534718
239	-1200	3792	88	-994	6589	-69	-27	145	410	30741	410	57534722
238	-1191	3787	88	-994	6580	-69	-27	145	411	30840	411	57534723
247	-1189	3803	89	-994	6567	-56	-28	150	412	30891	412	57534732
242	-1178	3808	92	-992	6555	-56	-28	150	413	30990	413	57534733
241	-1178	3801	91	-996	6546	-60	-28	152	414	31041	414	57534737
254	-1168	3805	88	-994	6534	-60	-28	152	415	31140	415	57534770
246	-1181	3809	90	-994	6522	-64	-30	150	416	31191	416	57534770
233	-1174	3821	87	-993	6513	-64	-30	150	417	31290	417	57534775
223	-1161	3787	88	-994	6504	-59	-35	151	418	31341	418	57534775
234	-1161	3782	84	-993	6490	-59	-35	151	419	31440	419	57534777
234	-1161	3797	85	-992	6479	-65	-33	147	420	31491	420	57534778
236	-1143	3795	84	-992	6471	-65	-33	147	421	31590	421	57534780
262	-1167	3820	84	-989	6460	-61	-35	149	422	31641	422	57534781
243	-1157	3804	80	-989	6451	-61	-35	149	423	31740	423	57534782
246	-1155	3792	82	-989	6440	-59	-43	153	424	31791	424	57534817
230	-1161	3801	81	-990	6429	-59	-43	153	425	31890	425	57534818
259	-1162	3787	79	-985	6420	-53	-41	149	426	31941	426	57534820
267	-1170	3799	78	-985	6412	-53	-41	149	427	32040	427	57534821
258	-1162	3812	80	-988	6399	-56	-36	150	428	32091	428	57534822
264	-1160	3805	77	-984	6391	-56	-36	150	429	32190	429	57534826
257	-1152	3802	79	-981	6384	-61	-39	143	430	32241	430	57534827
259	-1163	3829	80	-976	6374	-61	-39	143	431	32340	431	57534827
264	-1178	3821	82	-973	6366	-54	-40	148	432	32391	432	57534854
260	-1168	3817	82	-966	6360	-54	-40	148	433	32490	433	57534854
244	-1170	3802	84	-960	6351	-50	-52	150	434	32541	434	57534857
275	-1158	3791	86	-957	6345	-50	-52	150	435	32640	435	57534857
285	-1188	3787	84	-954	6338	-51	-49	147	436	32691	436	57534860
287	-1157	3799	85	-952	6328	-51	-49	147	437	32790	437	57534861
307	-1159	3785	85	-947	6320	-54	-46	144	438	32841	438	57534862
300	-1182	3795	84	-945	6317	-54	-46	144	439	32940	439	57534867
284	-1143	3801	88	-942	6306	-56	-54	150	440	32991	440	57534867
267	-1161	3812	84	-939	6299	-56	-54	150	441	33090	441	57534870
290	-1135	3811	86	-938	6293	-44	-54	152	442	33141	442	57534903
264	-1143	3803	86	-936	6281	-44	-54	152	443	33240	443	57534903
271	-1154	3814	86	-931	6273	-46	-58	148	444	33291	444	57534907
258	-1157	3795	87	-926	6268	-46	-58	148	445	33390	445	57534907
282	-1142	3792	87	-925	6257	-47	-55	149	446	33441	446	57534909
273	-1141	3827	84	-923	6248	-47	-55	149	447	33540	447	57534910
259	-1135	3786	88	-921	6243	-50	-54	150	448	33591	448	57534910
259	-1125	3795	86	-919	6235	-50	-54	150	449	33690	449	57534915
245	-1122	3800	85	-920	6222	-43	-57	149	450	33741	450	57534915
239	-1120	3817	82	-920	6216	-43	-57	149	451	33840	451	57534917
243	-1112	3810	86	-920	6205	-37	-61	145	452	33891	452	57534951
248	-1121	3820	84	-916	6197	-37	-61	145	453	33990	453	57534952
227	-1122	3805	82	-918	6188	-41	-53	139	454	34041	454	57534956
241	-1108	3830	79	-914	6180	-41	-53	139	455	34140	455	57534957
224	-1110	3843	79	-916	6165	-31	-63	137	456	34191	456	57534958
218	-1106	3799	78	-911	6160	-31	-63	137	457	34290	457	57534958
205	-1114	3838	79	-913	6150	-38	-62	142	458	34341	458	57534960
217	-1116	3812	78	-912	6138	-38	-62	142	459	34440	459	57534967
236	-1125	3802	80	-910	6133	-33	-63	147	460	34491	460	57534968
236	-1114	3805	77	-910	6121	-33	-63	147	461	34590	461	57534976
235	-1116	3828	79	-911	6109	-38	-66	150	462	34641	462	57534977
247	-1111	3824	76	-910	6104	-38	-66	150	463	34740	463	57534980
231	-1116	3821	75	-908	6092	-33	-71	143	464	34791	464	57535014
230	-1126	3831	75	-906	6082	-33	-71	143	465	34890	465	57535018
239	-1126	3830	76	-907	6075	-32	-72	140	466	34941	466	57535019
255	-1114	3822	76	-902	6068	-32	-72	140	467	35040	467	57535019
237	-1121	3803	79	-906	6055	-31	-65	137	468	35091	468	57535020
222	-1116	3825	77	-901	6048	-31	-65	137	469	35190	469	57535021
247	-1097	3811	79	-903	6041	-27	-65	141	470	35241	470	57535022
247	-1110	3811	76	-898	6028	-27	-65	141	471	35340	471	57535027
244	-1112	3801	79	-900	6020	-23	-65	141	472	35391	472	57535029
219	-1115	3810	79	-898	6013	-23	-65	141	473	35490	473	57535030
239	-1117	3808	79	-899	6004	-25	-73	143	474	35541	474	57535063
248	-1107	3817	79	-893	5996	-25	-73	143	475	35640	475	57535063
237	-1115	3809	80	-894	5988	-19	-65	139	476	35691	476	57535066
234	-1114	3811	79	-892	5979	-19	-65	139	477	35790	477	57535066
234	-1098	3820	81	-888	5970	-23	-65	141	478	35841	478	57535069
225	-1094	3821	77	-888	5964	-23	-65	141	479	35940	479	57535070
238	-1101	3815	78	-888	5953	-20	-72	140	480	35991	480	57535070
223	-1096	3833	79	-886	5945	-20	-72	140	481	36090	481	57535074
240	-1094	3804	79	-884	5938	-15	-73	135	482	36141	482	57535074
218	-1083	3805	78	-882	5928	-15	-73	135	483	36240	483	57535110
224	-1096	3820	78	-882	5921	-15	-69	143	484	36291	484	57535111
237	-1080	3806	78	-881	5912	-15	-69	143	485	36390	485	57535112
241	-1081	3810	79	-878	5903	-18	-70	132	486	36441	486	57535114
227	-1091	3806	75	-876	5894	-18	-70	132	487	36540	487	57535114
229	-1090	3821	76	-877	5892	-13	-71	137	488	36591	488	57535117
237	-1088	3805	75	-875	5881	-13	-71	137	489	36690	489	57535118
232	-1077	3800	76	-875	5870	-12	-68	132	490	36741	490	57535120
241	-1078	3812	73	-871	5863	-12	-68	132	491	36840	491	57535125
219	-1089	3828	75	-871	5854	-5	-73	137	492	36891	492	57535125
224	-1096	3807	76	-870	5843	-5	-73	137	493	36990	493	57535136
231	-1076	3815	76	-869	5839	-1	-75	141	494	37041	494	57535137
232	-1095	3828	74	-865	5829	-1	-75	141	495	37140	495	57535140
218	-1069	3807	74	-863	5819	-5	-77	139	496	37191	496	57535172
227	-1065	3794	71	-863	5815	-5	-77	139	497	37290	497	57535173
220	-1078	3827	72	-861	5806	-7	-73	137	498	37341	498	57535176
233	-1092	3832	74	-860	5796	-7	-73	137	499	37440	499	57535176
208	-1095	3823	75	-858	5789	5	-69	127	500	37491	500	57535179
226	-1078	3816	74	-859	5779	5	-69	127	501	37590	501	57535180
217	-1070	3788	74	-856	5769	-4	-72	126	502	37641	502	57535180
226	-1061	3837	73	-852	5759	-4	-72	126	503	37740	503	57535184
242	-1060	3826	75	-852	5749	11	-71	133	504	37791	504	57535184
216	-1063	3824	75	-849	5738	11	-71	133	505	37890	505	57535190
215	-1062	3813	77	-849	5732	6	-72	130	506	37941	506	57535223
224	-1075	3840	73	-849	5725	6	-72	130	507	38040	507	57535223
219	-1064	3852	75	-845	5713	5	-69	133	508	38091	508	57535230
229	-1054	3836	74	-843	5707	5	-69	133	509	38190	509	57535231
223	-1049	3826	75	-841	5696	8	-66	130	510	38241	510	57535231
211	-1068	3814	73	-840	5687	8	-66	130	511	38340	511	57535233
241	-1064	3820	76	-840	5678	8	-66	130	512	38391	512	57535234
226	-1045	3831	75	-839	5669	8	-66	130	513	38490	513	57535236
222	-1047	3815	74	-839	5661	16	-72	128	514	38541	514	57535237
238	-1055	3824	71	-837	5652	16	-72	128	515	38640	515	57535269
207	-1048	3824	72	-834	5644	17	-75	131	516	38691	516	57535269
217	-1051	3817	72	-834	5634	17	-75	131	517	38790	517	57535272
224	-1048	3825	72	-831	5624	21	-69	133	518	38841	518	57535273
221	-1040	3829	70	-831	5616	21	-69	133	519	38940	519	57535273
227	-1037	3833	68	-828	5605	16	-66	122	520	38991	520	57535277
191	-1051	3805	72	-830	5597	16	-66	122	521	39090	521	57535280
207	-1060	3829	71	-827	5587	18	-66	132	522	39141	522	57535282
217	-1041	3804	69	-823	5575	18	-66	132	523	39240	523	57535288
202	-1050	3823	72	-822	5566	19	-69	129	524	39291	524	57535289
216	-1039	3821	71	-819	5559	19	-69	129	525	39390	525	57535297
191	-1044	3809	71	-820	5549	21	-69	127	526	39441	526	57535308
194	-1018	3818	71	-818	5538	21	-69	127	527	39540	527	57535308
214	-1025	3818	71	-816	5532	22	-66	130	528	39591	528	57535309
212	-1017	3808	72	-815	5519	22	-66	130	529	39690	529	57535309
188	-1048	3821	70	-816	5505	24	-64	124	530	39741	530	57535341
210	-1019	3839	68	-815	5501	24	-64	124	531	39840	531	57535342
208	-1024	3825	70	-813	5489	26	-68	126	532	39891	532	57535345
209	-1021	3830	70	-813	5478	26	-68	126	533	39990	533	57535345
206	-1019	3816	72	-813	5468	26	-60	122	534	40041	534	57535347
209	-1028	3821	68	-808	5459	26	-60	122	535	40140	535	57535349
199	-1018	3834	69	-811	5449	27	-59	125	536	40191	536	57535349
191	-1035	3823	68	-806	5440	27	-59	125	537	40290	537	57535354
213	-1013	3820	71	-806	5428	42	-62	124	538	40341	538	57535356
200	-1012	3814	67	-800	5417	42	-62	124	539	40440	539	57535357
202	-1028	3819	68	-803	5409	34	-64	128	540	40491	540	57535390
205	-1013	3800	69	-800	5399	34	-64	128	541	40590	541	57535390
210	-1023	3832	71	-802	5386	35	-59	121	542	40641	542	57535394
197	-1008	3805	69	-799	5378	35	-59	121	543	40740	543	57535394
202	-1016	3846	69	-801	5370	30	-60	120	544	40791	544	57535396
230	-987	3839	68	-798	5355	30	-60	120	545	40890	545	57535397
198	-999	3841	70	-796	5345	34	-60	126	546	40941	546	57535398
195	-1010	3835	68	-796	5337	34	-60	126	547	41040	547	57535402
210	-993	3825	70	-795	5329	40	-56	122	548	41091	548	57535403
201	-999	3840	70	-792	5317	40	-56	122	549	41190	549	57535406
192	-986	3827	71	-793	5308	39	-61	119	550	41241	550	57535439
210	-1009	3823	67	-790	5298	39	-61	119	551	41340	551	57535439
202	-1002	3842	69	-788	5290	42	-58	124	552	41391	552	57535442
184	-980	3847	67	-788	5282	42	-58	124	553	41490	553	57535443
209	-993	3833	67	-787	5268	44	-50	122	554	41541	554	57535445
195	-979	3840	69	-785	5260	44	-50	122	555	41640	555	57535447
192	-989	3826	71	-784	5250	43	-49	125	556	41691	556	57535447
195	-1010	3852	67	-782	5238	43	-49	125	557	41790	557	57535454
180	-990	3834	67	-780	5229	43	-55	125	558	41841	558	57535454
193	-1007	3852	67	-780	5220	43	-55	125	559	41940	559	57535493
177	-973	3821	70	-779	5211	48	-54	128	560	41991	560	57535500
183	-989	3836	67	-778	5201	48	-54	128	561	42090	561	57535501
199	-978	3847	71	-779	5191	44	-48	124	562	42141	562	57535501
166	-976	3830	71	-777	5180	44	-48	124	563	42240	563	57535501
184	-956	3832	71	-777	5169	44	-48	120	564	42291	564	57535501
183	-971	3833	71	-777	5159	44	-48	120	565	42390	565	57535502
175	-978	3829	73	-775	5149	47	-43	121	566	42441	566	57535502
178	-977	3835	71	-776	5141	47	-43	121	567	42540	567	57535505
213	-976	3848	72	-775	5129	43	-43	115	568	42591	568	57535506
190	-973	3826	70	-773	5119	43	-43	115	569	42690	569	57535514
177	-968	3853	71	-774	5108	47	-49	125	570	42741	570	57535514
177	-962	3851	71	-772	5100	47	-49	125	571	42840	571	57535517
193	-974	3846	70	-769	5091	45	-43	121	572	42891	572	57535551
181	-969	3842	69	-772	5080	45	-43	121	573	42990	573	57535551
182	-955	3840	71	-768	5069	52	-44	122	574	43041	574	57535555
185	-943	3844	72	-769	5062	52	-44	122	575	43140	575	57535555
194	-963	3838	74	-770	5052	48	-32	116	576	43191	576	57535558
184	-955	3824	68	-765	5043	48	-32	116	577	43290	577	57535559
199	-936	3856	69	-764	5034	50	-34	124	578	43341	578	57535559
153	-922	3819	71	-763	5027	50	-34	124	579	43440	579	57535562
188	-1012	3862	54	-760	5022	44	-38	122	580	43491	580	57535563
164	-983	3857	77	-758	5013	44	-38	122	581	43590	581	57535566
158	-945	3859	75	-762	5002	53	-37	119	582	43641	582	57535600
166	-936	3851	67	-759	4995	53	-37	119	583	43740	583	57535600
57	-874	3699	63	-763	4988	52	-34	120	584	43791	584	57535604
-149	-968	3636	17	-766	4987	52	-34	120	585	43889	585	57535605
400	-608	3855	124	-738	5015	52	-28	116	586	43941	586	57535607
107	-966	4120	30	-774	5004	52	-28	116	587	44040	587	57535610
-73	-1208	3642	-49	-770	5005	54	-24	118	588	44090	588	57535618
222	-477	3632	169	-735	4996	54	-24	118	589	44189	589	57535626
20	-898	3947	35	-754	4993	52	-30	118	590	44240	590	57535628
287	-1166	3838	-34	-731	5037	52	-30	118	591	44339	591	57535628
140	-821	3917	99	-759	5027	55	-29	125	592	44390	592	57535628
-80	-1142	3976	-4	-759	5025	55	-29	125	593	44489	593	57535628
77	-844	3800	90	-756	5016	53	-31	123	594	44540	594	57535660
-133	-885	3899	61	-784	5015	53	-31	123	595	44639	595	57535661
-61	-1023	3830	-4	-791	5070	53	-27	123	596	44690	596	57535664
-245	-782	3741	75	-813	5081	53	-27	123	597	44789	597	57535664
-487	-1041	3860	5	-824	5106	58	-24	122	598	44840	598	57535666
-287	-1010	3831	31	-828	5148	58	-24	122	599	44939	599	57535667
-325	-710	3865	106	-854	5185	52	-20	116	600	44990	600	57535668
-425	-1108	3879	-17	-889	5244	52	-20	116	601	45089	601	57535671
-403	-1088	3874	56	-903	5296	58	-20	120	602	45140	602	57535671
-345	-914	3891	110	-914	5333	58	-20	120	603	45238	603	57535677
-276	-1170	3797	22	-926	5387	58	-22	122	604	45289	604	57535710
-202	-979	3747	110	-934	5452	58	-22	122	605	45388	605	57535710
-189	-1028	3769	83	-947	5516	56	-16	120	606	45439	606	57535714
-117	-1250	3792	51	-942	5577	56	-16	120	607	45538	607	57535714
-81	-1199	3823	105	-939	5626	51	-11	121	608	45589	608	57535716
-5	-1197	3820	83	-931	5691	51	-11	121	609	45688	609	57535717
49	-1203	3839	82	-932	5759	51	-17	121	610	45739	610	57535718
8	-1222	3789	64	-930	5828	51	-17	121	611	45838	611	57535721
36	-1307	3778	53	-916	5892	53	-13	117	612	45889	612	57535721
30	-1283	3802	74	-907	5944	53	-13	117	613	45988	613	57535756
81	-1286	3754	58	-894	6013	55	-13	125	614	46039	614	57535756
103	-1223	3756	78	-887	6080	55	-13	125	615	46138	615	57535757
40	-1262	3779	74	-894	6139	56	-8	122	616	46189	616	57535759
103	-1327	3789	58	-889	6202	56	-8	122	617	46288	617	57535760
70	-1286	3805	92	-897	6249	53	-5	121	618	46339	618	57535763
62	-1300	3806	84	-904	6304	53	-5	121	619	46438	619	57535766
24	-1295	3800	89	-910	6358	52	-8	122	620	46489	620	57535766
-18	-1283	3811	90	-919	6411	52	-8	122	621	46588	621	57535771
-54	-1312	3803	82	-920	6463	54	-2	122	622	46639	622	57535771
-98	-1251	3838	97	-921	6516	54	-2	122	623	46738	623	57535807
-132	-1240	3810	88	-925	6572	54	-6	124	624	46789	624	57535807
-141	-1235	3795	89	-930	6624	54	-6	124	625	46888	625	57535809
-201	-1202	3812	104	-940	6670	47	-3	123	626	46939	626	57535810
-182	-1203	3812	96	-951	6722	47	-3	123	627	47038	627	57535811
-213	-1185	3793	100	-968	6765	50	4	124	628	47089	628	57535814
-232	-1205	3808	92	-987	6815	50	4	124	629	47188	629	57535814
-249	-1218	3805	92	-1006	6864	47	1	119	630	47239	630	57535819
-255	-1219	3787	88	-1025	6908	47	1	119	631	47338	631	57535821
-252	-1256	3816	83	-1043	6953	46	4	124	632	47389	632	57535822
-263	-1264	3789	85	-1057	7003	46	4	124	633	47488	633	57535856
-249	-1305	3780	80	-1071	7055	48	6	126	634	47539	634	57535857
-216	-1329	3774	82	-1082	7103	48	6	126	635	47638	635	57535859
-199	-1365	3775	85	-1095	7155	47	13	125	636	47689	636	57535860
-158	-1393	3772	78	-1103	7206	47	13	125	637	47788	637	57535860
-142	-1398	3793	86	-1116	7257	46	14	120	638	47839	638	57535864
-142	-1435	3794	83	-1126	7314	46	14	120	639	47938	639	57535864
-114	-1458	3797	86	-1136	7366	40	14	124	640	47989	640	57535867
-100	-1469	3780	91	-1136	7424	40	14	124	641	48088	641	57535868
-72	-1493	3792	94	-1142	7484	45	11	127	642	48139	642	57535868
-86	-1512	3796	98	-1146	7548	45	11	127	643	48238	643	57535906
-50	-1516	3759	101	-1151	7604	42	16	126	644	48289	644	57535907
-44	-1517	3769	100	-1154	7667	42	16	126	645	48388	645	57535908
-68	-1513	3767	103	-1159	7728	40	16	130	646	48439	646	57535908
-89	-1507	3734	103	-1163	7792	40	16	130	647	48538	647	57535910
-100	-1490	3734	105	-1173	7857	36	18	126	648	48589	648	57535911
-113	-1522	3740	99	-1179	7924	36	18	126	649	48688	649	57535912
-129	-1523	3757	101	-1188	7991	33	17	127	650	48739	650	57535915
-133	-1541	3757	97	-1197	8062	33	17	127	651	48838	651	57535915
-147	-1555	3787	100	-1208	8133	31	19	127	652	48889	652	57535919
-158	-1574	3782	103	-1220	8199	31	19	127	653	48988	653	57535951
-166	-1609	3787	108	-1233	8270	35	15	133	654	49039	654	57535952
-166	-1652	3796	111	-1244	8335	35	15	133	655	49138	655	57535955
-163	-1677	3766	115	-1262	8399	29	21	131	656	49189	656	57535955
-208	-1716	3755	115	-1275	8469	29	21	131	657	49288	657	57535958
-218	-1717	3713	121	-1288	8532	23	25	129	658	49339	658	57535959
-212	-1718	3709	123	-1298	8598	23	25	129	659	49438	659	57535959
-195	-1736	3647	124	-1310	8662	23	27	131	660	49489	660	57535966
-133	-1749	3714	124	-1314	8733	23	27	131	661	49588	661	57535966
-96	-1791	3765	131	-1328	8797	20	22	136	662	49639	662	57535969
-101	-1857	3762	129	-1341	8850	20	22	136	663	49738	663	57536001
-60	-1879	3766	143	-1348	8907	15	27	133	664	49789	664	57536002
-22	-1932	3799	157	-1356	8952	15	27	133	665	49888	665	57536005
16	-1942	3746	164	-1363	8996	16	28	128	666	49939	666	57536005
54	-1969	3736	172	-1368	9035	16	28	128	667	50038	667	57536008
86	-2006	3709	182	-1373	9064	11	27	129	668	50089	668	57536009
134	-1995	3684	193	-1375	9090	11	27	129	669	50187	669	57536011
194	-2020	3713	200	-1377	9107	13	29	131	670	50238	670	57536014
221	-2027	3714	201	-1378	9122	13	29	131	671	50337	671	57536017
264	-1994	3661	210	-1378	9129	6	26	134	672	50388	672	57536049
270	-1977	3713	219	-1379	9131	6	26	134	673	50487	673	57536049
365	-1949	3685	210	-1367	9134	8	32	136	674	50538	674	57536051
438	-1867	3664	216	-1357	9127	8	32	136	675	50637	675	57536052
461	-1814	3684	217	-1350	9122	8	34	132	676	50688	676	57536053
475	-1772	3728	206	-1337	9111	8	34	132	677	50786	677	57536056
451	-1722	3721	207	-1331	9098	1	27	135	678	50837	678	57536056
448	-1641	3709	205	-1320	9085	1	27	135	679	50936	679	57536059
458	-1591	3727	203	-1323	9069	0	28	142	680	50987	680	57536065
452	-1591	3726	190	-1327	9051	0	28	142	681	51086	681	57536065
434	-1527	3731	195	-1331	9037	-8	34	142	682	51137	682	57536100
421	-1510	3732	184	-1333	9020	-8	34	142	683	51236	683	57536100
418	-1485	3736	171	-1332	9001	-3	31	139	684	51287	684	57536102
418	-1467	3718	165	-1329	8987	-3	31	139	685	51386	685	57536106
403	-1484	3721	150	-1324	8977	-12	32	140	686	51437	686	57536108
399	-1479	3723	140	-1318	8965	-12	32	140	687	51536	687	57536134
378	-1481	3738	138	-1310	8956	-11	31	139	688	51587	688	57536135
395	-1517	3709	125	-1303	8942	-11	31	139	689	51686	689	57536137
387	-1538	3708	119	-1296	8926	-15	27	139	690	51737	690	57536138
354	-1577	3686	107	-1290	8916	-15	27	139	691	51836	691	57536140
348	-1625	3746	101	-1290	8902	-19	29	145	692	51887	692	57536142
336	-1637	3748	102	-1288	8880	-19	29	145	693	51986	693	57536143
302	-1661	3752	99	-1287	8862	-23	31	141	694	52036	694	57536145
300	-1694	3755	95	-1287	8844	-23	31	141	695	52135	695	57536146
269	-1712	3753	102	-1284	8823	-23	31	141	696	52186	696	57536148
279	-1746	3764	107	-1284	8804	-23	31	141	697	52285	697	57536149
265	-1753	3746	117	-1285	8784	-24	26	144	698	52336	698	57536152
244	-1763	3758	117	-1284	8761	-24	26	144	699	52435	699	57536160
234	-1774	3743	124	-1288	8739	-24	22	144	700	52485	700	57536160
237	-1768	3711	131	-1290	8718	-24	22	144	701	52584	701	57536166
257	-1761	3708	135	-1291	8693	-27	29	147	702	52635	702	57536196
258	-1737	3713	138	-1293	8670	-27	29	147	703	52734	703	57536197
290	-1725	3736	142	-1291	8653	-31	27	153	704	52785	704	57536200
276	-1695	3753	146	-1290	8628	-31	27	153	705	52884	705	57536200
313	-1680	3731	149	-1295	8608	-34	28	148	706	52935	706	57536202
324	-1647	3737	149	-1291	8592	-34	28	148	707	53033	707	57536204
328	-1622	3754	153	-1289	8573	-37	27	139	708	53084	708	57536204
338	-1594	3736	152	-1285	8554	-37	27	139	709	53183	709	57536209
347	-1582	3760	152	-1285	8540	-32	24	148	710	53234	710	57536209
358	-1573	3742	151	-1279	8524	-32	24	148	711	53333	711	57536213
358	-1540	3731	148	-1272	8510	-45	17	155	712	53383	712	57536245
369	-1522	3737	145	-1267	8500	-45	17	155	713	53482	713	57536246
378	-1525	3741	144	-1264	8485	-47	19	153	714	53532	714	57536249
376	-1519	3732	137	-1259	8471	-47	19	153	715	53631	715	57536249
395	-1524	3755	135	-1257	8459	-40	18	146	716	53682	716	57536251
389	-1500	3749	130	-1251	8446	-40	18	146	717	53781	717	57536252
395	-1522	3742	130	-1247	8433	-47	21	147	718	53832	718	57536253
392	-1533	3747	123	-1242	8421	-47	21	147	719	53931	719	57536257
378	-1530	3772	119	-1240	8406	-48	20	150	720	53982	720	57536258
371	-1526	3770	118	-1235	8394	-48	20	150	721	54080	721	57536292
374	-1528	3749	120	-1231	8385	-49	11	155	722	54131	722	57536292
346	-1551	3722	117	-1227	8370	-49	11	155	723	54229	723	57536295
343	-1556	3759	115	-1222	8354	-49	13	157	724	54281	724	57536296
320	-1569	3765	118	-1218	8341	-49	13	157	725	54380	725	57536297
325	-1565	3728	117	-1217	8327	-51	9	147	726	54431	726	57536300
294	-1564	3750	118	-1219	8311	-51	9	147	727	54529	727	57536300
291	-1556	3757	121	-1216	8293	-53	11	141	728	54580	728	57536302
289	-1567	3757	120	-1211	8280	-53	11	141	729	54679	729	57536308
271	-1560	3767	124	-1213	8257	-53	1	155	730	54729	730	57536309
270	-1561	3758	122	-1212	8242	-53	1	155	731	54828	731	57536344
278	-1542	3753	127	-1214	8225	-53	7	155	732	54879	732	57536345
256	-1553	3746	126	-1214	8206	-53	7	155	733	54977	733	57536346
273	-1554	3733	125	-1214	8189	-60	2	152	734	55028	734	57536347
272	-1536	3769	126	-1217	8174	-60	2	152	735	55127	735	57536348
276	-1520	3750	127	-1219	8153	-60	6	156	736	55178	736	57536351
284	-1520	3762	126	-1218	8138	-60	6	156	737	55276	737	57536351
284	-1524	3749	129	-1217	8122	-54	-2	150	738	55327	738	57536353
283	-1495	3779	128	-1219	8106	-54	-2	150	739	55426	739	57536356
295	-1492	3764	125	-1223	8089	-59	-5	155	740	55477	740	57536357
296	-1483	3761	123	-1221	8078	-59	-5	155	741	55576	741	57536391
292	-1486	3743	126	-1221	8061	-56	-6	158	742	55627	742	57536392
289	-1499	3726	125	-1221	8048	-56	-6	158	743	55726	743	57536395
284	-1471	3749	125	-1218	8035	-61	-9	157	744	55777	744	57536395
310	-1463	3761	122	-1220	8019	-61	-9	157	745	55876	745	57536397
294	-1474	3747	125	-1216	8004	-64	-10	146	746	55927	746	57536399
312	-1465	3741	122	-1214	7995	-64	-10	146	747	56026	747	57536399
311	-1470	3733	122	-1212	7980	-62	-10	152	748	56077	748	57536405
302	-1463	3755	121	-1209	7967	-62	-10	152	749	56176	749	57536406
325	-1461	3739	118	-1207	7955	-65	-9	157	750	56227	750	57536407
317	-1456	3770	118	-1204	7941	-65	-9	157	751	56326	751	57536440
305	-1467	3763	117	-1204	7927	-63	-19	153	752	56377	752	57536440
319	-1461	3762	116	-1205	7918	-63	-19	153	753	56476	753	57536445
302	-1456	3764	117	-1201	7906	-61	-17	153	754	56527	754	57536446
311	-1448	3778	115	-1197	7889	-61	-17	153	755	56626	755	57536447
308	-1446	3779	115	-1193	7883	-65	-17	151	756	56677	756	57536448
302	-1466	3779	112	-1191	7871	-65	-17	151	757	56776	757	57536449
300	-1471	3752	115	-1191	7855	-63	-21	153	758	56827	758	57536453
296	-1467	3795	112	-1190	7846	-63	-21	153	759	56926	759	57536453
298	-1455	3759	112	-1189	7833	-58	-22	156	760	56977	760	57536456
295	-1426	3767	109	-1188	7819	-58	-22	156	761	57076	761	57536489
286	-1452	3746	114	-1186	7808	-62	-24	154	762	57127	762	57536489
289	-1433	3737	113	-1187	7795	-62	-24	154	763	57226	763	57536492
281	-1466	3745	114	-1188	7780	-64	-26	148	764	57277	764	57536492
285	-1456	3749	111	-1184	7772	-64	-26	148	765	57376	765	57536495
298	-1436	3752	113	-1183	7762	-61	-27	151	766	57427	766	57536496
292	-1427	3757	112	-1180	7747	-61	-27	151	767	57525	767	57536496
284	-1431	3759	113	-1180	7735	-62	-34	152	768	57577	768	57536504
290	-1432	3761	110	-1182	7724	-62	-34	152	769	57675	769	57536504
290	-1423	3751	111	-1182	7708	-61	-33	149	770	57727	770	57536507
275	-1425	3765	111	-1182	7694	-61	-33	149	771	57826	771	57536539
285	-1414	3765	109	-1183	7685	-64	-34	152	772	57877	772	57536540
294	-1405	3764	108	-1182	7671	-64	-34	152	773	57975	773	57536542
281	-1417	3760	109	-1177	7659	-61	-37	145	774	58026	774	57536543
279	-1420	3750	107	-1173	7652	-61	-37	145	775	58125	775	57536546
286	-1412	3752	111	-1173	7640	-58	-40	148	776	58176	776	57536546
301	-1407	3772	110	-1171	7631	-58	-40	148	777	58275	777	57536549
294	-1408	3778	108	-1167	7623	-60	-40	150	778	58326	778	57536556
295	-1414	3776	108	-1164	7611	-60	-40	150	779	58425	779	57536577
313	-1413	3777	111	-1161	7602	-57	-45	153	780	58476	780	57536578
298	-1407	3791	111	-1155	7594	-57	-45	153	781	58575	781	57536578
321	-1413	3789	113	-1150	7583	-61	-43	151	782	58626	782	57536578
339	-1415	3755	110	-1149	7573	-61	-43	151	783	58725	783	57536601
328	-1414	3775	111	-1146	7564	-53	-49	149	784	58776	784	57536601
322	-1412	3787	107	-1143	7556	-53	-49	149	785	58874	785	57536605
320	-1419	3785	109	-1139	7546	-49	-51	141	786	58926	786	57536605
325	-1394	3763	108	-1136	7539	-49	-51	141	787	59025	787	57536607
336	-1402	3749	109	-1132	7529	-51	-49	147	788	59076	788	57536608
322	-1393	3774	105	-1126	7520	-51	-49	147	789	59175	789	57536609
340	-1381	3784	111	-1121	7512	-47	-53	147	790	59226	790	57536612
314	-1394	3788	108	-1117	7503	-47	-53	147	791	59325	791	57536612
306	-1389	3772	111	-1114	7494	-46	-58	146	792	59376	792	57536616
304	-1392	3784	108	-1110	7486	-46	-58	146	793	59475	793	57536650
318	-1380	3777	111	-1108	7473	-48	-56	146	794	59526	794	57536650
326	-1384	3786	112	-1103	7461	-48	-56	146	795	59625	795	57536654
311	-1372	3775	110	-1103	7456	-46	-54	150	796	59676	796	57536655
299	-1369	3770	110	-1099	7447	-46	-54	150	797	59774	797	57536656
299	-1368	3782	111	-1099	7434	-39	-53	139	798	59825	798	57536657
294	-1368	3765	107	-1097	7425	-39	-53	139	799	59923	799	57536658
295	-1376	3765	109	-1093	7414	-45	-59	139	800	59975	800	57536661
284	-1372	3790	105	-1092	7403	-45	-59	139	801	60074	801	57536661
291	-1350	3777	110	-1092	7394	-40	-62	148	802	60125	802	57536664
270	-1338	3768	107	-1090	7381	-40	-62	148	803	60224	803	57536697
269	-1352	3785	109	-1088	7369	-33	-59	149	804	60275	804	57536698
288	-1363	3770	108	-1091	7360	-33	-59	149	805	60374	805	57536701
268	-1351	3762	108	-1090	7352	-37	-61	143	806	60425	806	57536701
274	-1340	3763	105	-1087	7336	-37	-61	143	807	60524	807	57536706
262	-1349	3778	106	-1088	7324	-30	-68	148	808	60575	808	57536706
268	-1330	3778	103	-1087	7313	-30	-68	148	809	60673	809	57536707
270	-1338	3766	106	-1086	7298	-38	-68	142	810	60724	810	57536712
267	-1344	3765	103	-1083	7291	-38	-68	142	811	60823	811	57536713
276	-1337	3774	101	-1082	7280	-25	-63	143	812	60874	812	57536724
265	-1345	3793	100	-1084	7266	-25	-63	143	813	60973	813	57536724
272	-1337	3778	101	-1083	7256	-28	-70	138	814	61024	814	57536726
262	-1331	3774	98	-1081	7246	-28	-70	138	815	61123	815	57536773
278	-1335	3763	100	-1081	7235	-27	-71	139	816	61174	816	57536773
260	-1346	3780	99	-1079	7222	-27	-71	139	817	61273	817	57536776
293	-1344	3788	100	-1079	7217	-28	-66	134	818	61324	818	57536776
286	-1343	3796	100	-1077	7204	-28	-66	134	819	61423	819	57536779
266	-1331	3784	102	-1075	7191	-21	-73	135	820	61474	820	57536780
258	-1352	3793	98	-1075	7182	-21	-73	135	821	61573	821	57536780
268	-1337	3759	102	-1074	7173	-14	-62	136	822	61624	822	57536784
270	-1341	3761	101	-1071	7160	-14	-62	136	823	61723	823	57536784
250	-1330	3787	103	-1073	7151	-12	-68	136	824	61774	824	57536786
276	-1348	3782	104	-1071	7139	-12	-68	136	825	61873	825	57536788
268	-1335	3776	106	-1066	7130	-16	-70	138	826	61924	826	57536788
284	-1337	3796	103	-1062	7122	-16	-70	138	827	62023	827	57536798
275	-1331	3799	106	-1061	7114	-12	-72	140	828	62074	828	57536798
268	-1318	3778	103	-1055	7102	-12	-72	140	829	62173	829	57536801
273	-1315	3771	104	-1056	7092	-8	-70	134	830	62224	830	57536834
281	-1314	3776	105	-1051	7083	-8	-70	134	831	62323	831	57536837
274	-1325	3798	107	-1050	7073	-5	-73	141	832	62374	832	57536840
270	-1305	3781	103	-1048	7066	-5	-73	141	833	62473	833	57536841
285	-1317	3769	105	-1048	7056	-1	-71	129	834	62524	834	57536843
284	-1308	3767	104	-1046	7041	-1	-71	129	835	62623	835	57536848
272	-1297	3794	105	-1043	7035	-4	-68	130	836	62674	836	57536848
270	-1284	3791	99	-1042	7027	-4	-68	130	837	62772	837	57536849
269	-1298	3786	100	-1041	7017	1	-75	131	838	62824	838	57536850
269	-1297	3786	98	-1036	7006	1	-75	131	839	62923	839	57536858
273	-1292	3787	99	-1034	6998	6	-76	140	840	62974	840	57536858
273	-1295	3791	100	-1035	6987	6	-76	140	841	63073	841	57536861
269	-1279	3780	103	-1031	6976	7	-73	133	842	63124	842	57536871
277	-1292	3796	98	-1029	6968	7	-73	133	843	63223	843	57536872
257	-1275	3787	102	-1028	6956	2	-68	136	844	63274	844	57536882
258	-1293	3785	102	-1027	6946	2	-68	136	845	63373	845	57536883
262	-1286	3779	100	-1023	6937	5	-71	135	846	63424	846	57536888
264	-1270	3786	99	-1021	6922	5	-71	135	847	63523	847	57536897
279	-1283	3802	99	-1022	6912	12	-70	132	848	63574	848	57536899
259	-1276	3798	98	-1019	6905	12	-70	132	849	63673	849	57536906
241	-1271	3791	98	-1018	6891	13	-75	131	850	63724	850	57536907
238	-1276	3773	96	-1013	6880	13	-75	131	851	63823	851	57536919
232	-1276	3786	97	-1014	6873	11	-73	131	852	63874	852	57536920
246	-1263	3786	95	-1014	6859	11	-73	131	853	63973	853	57536920
234	-1260	3811	96	-1013	6846	22	-70	130	854	64024	854	57536956
240	-1264	3784	95	-1008	6837	22	-70	130	855	64123	855	57536957
252	-1250	3797	96	-1011	6823	25	-65	131	856	64174	856	57536957
252	-1260	3809	96	-1008	6811	25	-65	131	857	64273	857	57536958
241	-1267	3799	97	-1006	6803	19	-63	125	858	64324	858	57536959
248	-1251	3799	95	-1006	6789	19	-63	125	859	64423	859	57536967
258	-1250	3823	96	-1005	6777	24	-68	126	860	64474	860	57536968
250	-1264	3795	95	-1004	6768	24	-68	126	861	64573	861	57536971
243	-1248	3790	98	-1002	6753	22	-64	126	862	64624	862	57536971
251	-1243	3780	92	-996	6741	22	-64	126	863	64723	863	57536976
257	-1247	3806	94	-996	6734	26	-68	128	864	64774	864	57536981
247	-1239	3804	93	-996	6722	26	-68	128	865	64873	865	57536981
234	-1234	3800	94	-996	6708	32	-70	128	866	64924	866	57536991
243	-1231	3806	97	-991	6701	32	-70	128	867	65023	867	57536992
251	-1244	3783	94	-992	6688	35	-61	129	868	65074	868	57536995
256	-1246	3802	94	-990	6675	35	-61	129	869	65173	869	57537028
254	-1244	3816	93	-988	6666	30	-64	126	870	65224	870	57537028
254	-1242	3803	96	-987	6654	30	-64	126	871	65323	871	57537031
254	-1230	3799	96	-986	6638	35	-55	121	872	65374	872	57537031
247	-1226	3792	97	-984	6628	35	-55	121	873	65473	873	57537035
252	-1229	3799	96	-981	6621	35	-59	121	874	65524	874	57537037
245	-1227	3788	96	-981	6607	35	-59	121	875	65623	875	57537037
237	-1224	3805	97	-979	6598	41	-57	119	876	65674	876	57537040
231	-1224	3813	94	-977	6588	41	-57	119	877	65773	877	57537040
225	-1237	3794	95	-974	6570	35	-55	121	878	65824	878	57537044
228	-1236	3788	93	-973	6558	35	-55	121	879	65923	879	57537077
253	-1218	3773	92	-974	6551	42	-56	126	880	65974	880	57537077
224	-1214	3802	92	-973	6540	42	-56	126	881	66073	881	57537080
222	-1207	3799	94	-968	6527	45	-55	123	882	66124	882	57537080
221	-1205	3801	95	-968	6515	45	-55	123	883	66223	883	57537082
221	-1204	3800	96	-970	6501	45	-53	123	884	66274	884	57537087
221	-1204	3813	93	-967	6494	45	-53	123	885	66373	885	57537090
240	-1187	3815	95	-967	6486	45	-43	117	886	66424	886	57537091
228	-1186	3802	92	-965	6470	45	-43	117	887	66523	887	57537091
240	-1199	3805	93	-966	6459	47	-45	121	888	66574	888	57537124
215	-1193	3792	93	-961	6448	47	-45	121	889	66673	889	57537124
208	-1193	3822	95	-962	6435	45	-45	123	890	66724	890	57537126
234	-1191	3802	95	-958	6425	45	-45	123	891	66823	891	57537127
214	-1193	3809	95	-961	6415	52	-36	118	892	66874	892	57537128
218	-1185	3812	96	-964	6403	52	-36	118	893	66973	893	57537131
216	-1173	3807	97	-963	6389	43	-45	121	894	67024	894	57537131
221	-1197	3788	94	-960	6382	43	-45	121	895	67123	895	57537133
198	-1179	3807	96	-959	6368	49	-45	119	896	67174	896	57537143
198	-1170	3777	97	-958	6357	49	-45	119	897	67273	897	57537143
154	-1175	3738	86	-960	6346	51	-39	123	898	67324	898	57537151
201	-1144	3809	97	-956	6341	51	-39	123	899	67423	899	57537152
224	-1069	3793	106	-955	6334	56	-34	128	900	67474	900	57537154
121	-1212	3777	58	-960	6331	56	-34	128	901	67573	901	57537187
219	-1116	3834	99	-954	6327	53	-33	125	902	67624	902	57537188
175	-1064	3820	97	-957	6318	53	-33	125	903	67723	903	57537191
158	-1182	3790	52	-958	6327	53	-27	121	904	67774	904	57537191
150	-1062	3760	92	-957	6327	53	-27	121	905	67873	905	57537193
43	-1102	3684	57	-963	6324	49	-27	121	906	67924	906	57537195
242	-1079	3754	65	-944	6346	49	-27	121	907	68023	907	57537198
217	-1013	3825	79	-951	6349	49	-33	119	908	68074	908	57537198
72	-1153	3777	20	-949	6364	49	-33	119	909	68173	909	57537199
140	-1045	3778	64	-942	6379	56	-26	122	910	68224	910	57537203
139	-1048	3852	63	-936	6388	56	-26	122	911	68323	911	57537237
160	-1158	3844	18	-934	6407	60	-34	118	912	68374	912	57537237
49	-1128	3870	49	-946	6422	60	-34	118	913	68473	913	57537240
-33	-1103	3911	58	-964	6442	49	-25	119	914	68524	914	57537240
-113	-1144	3901	37	-987	6459	49	-25	119	915	68623	915	57537243
-267	-1143	3844	40	-1010	6478	56	-24	118	916	68674	916	57537244
-280	-1112	3775	35	-1026	6525	56	-24	118	917	68773	917	57537247
-355	-1076	3791	58	-1043	6571	56	-20	114	918	68824	918	57537248
-390	-1140	3783	40	-1050	6620	56	-20	114	919	68923	919	57537249
-375	-1232	3812	55	-1057	6670	56	-24	124	920	68974	920	57537260
-378	-1229	3819	90	-1067	6717	56	-24	124	921	69073	921	57537260
-239	-1148	3817	95	-1081	6779	57	-21	121	922	69124	922	57537263
-217	-1197	3809	74	-1104	6837	57	-21	121	923	69223	923	57537296
-204	-1366	3811	49	-1118	6891	49	-19	119	924	69274	924	57537298
-110	-1345	3794	66	-1118	6944	49	-19	119	925	69373	925	57537301
-80	-1409	3743	75	-1125	6998	59	-13	125	926	69424	926	57537308
-46	-1392	3775	67	-1131	7052	59	-13	125	927	69523	927	57537308
-56	-1460	3760	67	-1139	7108	59	-13	117	928	69574	928	57537308
-83	-1533	3797	64	-1152	7157	59	-13	117	929	69673	929	57537309
-57	-1584	3811	76	-1154	7205	55	-9	117	930	69724	930	57537309
-54	-1569	3769	89	-1158	7253	55	-9	117	931	69823	931	57537310
-31	-1576	3768	94	-1158	7315	48	-8	130	932	69874	932	57537312
-52	-1624	3755	95	-1157	7372	48	-8	130	933	69973	933	57537345
-65	-1651	3759	96	-1156	7423	52	-8	122	934	70024	934	57537345
-43	-1700	3732	97	-1148	7482	52	-8	122	935	70123	935	57537349
-44	-1644	3750	117	-1148	7534	56	0	124	936	70174	936	57537349
-52	-1666	3704	111	-1150	7586	56	0	124	937	70273	937	57537351
-50	-1693	3703	111	-1153	7643	54	-4	120	938	70324	938	57537352
-75	-1714	3746	120	-1160	7690	54	-4	120	939	70423	939	57537353
-58	-1717	3765	125	-1168	7738	54	0	118	940	70474	940	57537360
-76	-1673	3765	134	-1172	7788	54	0	118	941	70573	941	57537361
-67	-1674	3775	132	-1187	7840	53	1	127	942	70624	942	57537362
-86	-1657	3783	138	-1196	7891	53	1	127	943	70723	943	57537412
-109	-1638	3805	145	-1209	7945	48	0	126	944	70774	944	57537413
-91	-1610	3779	146	-1219	7998	48	0	126	945	70873	945	57537417
-113	-1574	3770	158	-1228	8050	48	8	120	946	70924	946	57537417
-100	-1598	3743	153	-1240	8109	48	8	120	947	71023	947	57537418
-82	-1602	3764	155	-1247	8169	45	5	121	948	71074	948	57537420
-70	-1613	3751	158	-1256	8227	45	5	121	949	71173	949	57537420
-57	-1619	3753	157	-1260	8283	42	10	122	950	71224	950	57537423
-50	-1618	3759	156	-1267	8339	42	10	122	951	71323	951	57537424
-61	-1597	3735	152	-1275	8391	40	12	128	952	71374	952	57537427
-37	-1613	3703	146	-1281	8447	40	12	128	953	71473	953	57537428
-15	-1619	3733	144	-1284	8504	43	13	121	954	71524	954	57537430
-2	-1616	3725	138	-1291	8552	43	13	121	955	71623	955	57537431
5	-1617	3704	141	-1295	8607	39	15	127	956	71674	956	57537431
15	-1622	3725	137	-1295	8661	39	15	127	957	71773	957	57537444
6	-1647	3724	132	-1298	8714	39	15	135	958	71824	958	57537446
14	-1672	3717	131	-1303	8767	39	15	135	959	71923	959	57537447
-8	-1676	3731	126	-1310	8820	38	20	130	960	71974	960	57537481
-4	-1694	3710	122	-1313	8871	38	20	130	961	72073	961	57537481
-4	-1703	3727	119	-1319	8924	31	13	131	962	72124	962	57537486
-15	-1726	3721	115	-1323	8980	31	13	131	963	72223	963	57537487
-40	-1735	3720	115	-1335	9030	32	26	122	964	72274	964	57537487
-39	-1738	3744	113	-1344	9083	32	26	122	965	72373	965	57537488
-70	-1735	3739	116	-1351	9142	28	24	124	966	72424	966	57537489
-109	-1772	3721	112	-1363	9198	28	24	124	967	72523	967	57537492
-94	-1774	3734	111	-1370	9256	25	23	131	968	72574	968	57537493
-108	-1800	3744	110	-1378	9321	25	23	131	969	72673	969	57537498
-137	-1845	3765	111	-1397	9382	25	23	135	970	72724	970	57537531
-139	-1870	3756	115	-1408	9440	25	23	135	971	72823	971	57537531
-146	-1912	3750	117	-1423	9499	22	32	136	972	72874	972	57537534
-154	-1952	3750	117	-1433	9559	22	32	136	973	72973	973	57537535
-151	-1977	3737	123	-1445	9616	18	34	124	974	73024	974	57537538
-153	-2004	3733	125	-1458	9675	18	34	124	975	73123	975	57537541
-148	-2009	3700	132	-1469	9732	12	24	134	976	73174	976	57537541
-157	-2025	3700	141	-1479	9788	12	24	134	977	73273	977	57537544
-102	-2032	3714	146	-1491	9843	15	29	129	978	73324	978	57537545
-71	-2081	3701	156	-1503	9893	15	29	129	979	73423	979	57537553
-51	-2116	3707	163	-1515	9937	13	27	139	980	73474	980	57537554
-18	-2157	3725	173	-1519	9980	13	27	139	981	73573	981	57537557
64	-2190	3746	188	-1527	10016	10	30	140	982	73624	982	57537590
106	-2215	3745	198	-1533	10042	10	30	140	983	73723	983	57537590
139	-2243	3714	207	-1542	10064	5	31	135	984	73774	984	57537593
221	-2264	3657	216	-1545	10079	5	31	135	985	73873	985	57537594
247	-2286	3659	223	-1544	10083	1	33	137	986	73924	986	57537596
304	-2280	3592	231	-1537	10084	1	33	137	987	74023	987	57537597
365	-2281	3572	231	-1533	10078	-3	33	135	988	74074	988	57537598
394	-2301	3597	224	-1521	10067	-3	33	135	989	74173	989	57537601
433	-2261	3566	221	-1503	10057	-2	28	144	990	74224	990	57537601
426	-2175	3530	218	-1488	10045	-2	28	144	991	74323	991	57537607
437	-2124	3606	201	-1479	10030	-10	32	144	992	74374	992	57537640
446	-2106	3692	188	-1469	10015	-10	32	144	993	74473	993	57537641
452	-2028	3729	190	-1470	9995	-9	33	139	994	74524	994	57537644
469	-1927	3757	198	-1469	9973	-9	33	139	995	74623	995	57537648
475	-1922	3784	200	-1475	9950	-16	34	138	996	74674	996	57537648
488	-1916	3756	197	-1485	9928	-16	34	138	997	74773	997	57537649
471	-1899	3758	204	-1496	9906	-18	26	134	998	74823	998	57537649
454	-1879	3688	200	-1500	9886	-18	26	134	999	74922	999	57537651
469	-1859	3669	195	-1496	9868	-17	27	139	1000	74973	1000	57537652
469	-1878	3625	181	-1488	9850	-17	27	139	1001	75072	1001	57537657
488	-1834	3649	177	-1476	9838	-22	28	144	1002	75123	1002	57537688
477	-1819	3636	169	-1467	9831	-22	28	144	1003	75222	1003	57537688
481	-1813	3637	160	-1453	9820	-25	33	147	1004	75273	1004	57537691
488	-1819	3694	152	-1442	9806	-25	33	147	1005	75371	1005	57537691
475	-1822	3719	152	-1435	9792	-28	30	148	1006	75423	1006	57537696
486	-1824	3724	151	-1430	9777	-28	30	148	1007	75522	1007	57537696
469	-1838	3746	147	-1428	9763	-30	30	144	1008	75573	1008	57537697
458	-1875	3730	145	-1429	9746	-30	30	144	1009	75671	1009	57537703
438	-1888	3721	144	-1428	9728	-32	26	150	1010	75722	1010	57537703
435	-1899	3695	139	-1427	9710	-32	26	150	1011	75821	1011	57537712
398	-1913	3684	140	-1425	9693	-34	24	150	1012	75872	1012	57537713
376	-1932	3696	138	-1419	9674	-34	24	150	1013	75971	1013	57537713
355	-1935	3671	138	-1416	9657	-36	20	148	1014	76022	1014	57537750
357	-1929	3690	139	-1412	9641	-36	20	148	1015	76121	1015	57537751
358	-1929	3711	141	-1409	9619	-36	20	148	1016	76172	1016	57537755
339	-1920	3719	143	-1408	9599	-36	20	148	1017	76271	1017	57537757
338	-1915	3742	148	-1408	9578	-38	24	144	1018	76322	1018	57537757
319	-1933	3735	152	-1412	9555	-38	24	144	1019	76421	1019	57537758
311	-1903	3723	154	-1411	9531	-44	24	148	1020	76472	1020	57537759
328	-1900	3693	153	-1412	9511	-44	24	148	1021	76571	1021	57537761
304	-1882	3694	158	-1414	9493	-41	19	147	1022	76622	1022	57537761
308	-1847	3688	159	-1411	9468	-41	19	147	1023	76721	1023	57537768
297	-1832	3711	161	-1412	9447	-46	16	150	1024	76772	1024	57537800
306	-1827	3691	161	-1408	9430	-46	16	150	1025	76871	1025	57537800
345	-1817	3701	161	-1409	9412	-50	14	154	1026	76922	1026	57537803
346	-1802	3709	158	-1408	9395	-50	14	154	1027	77021	1027	57537803
346	-1795	3702	160	-1407	9377	-51	15	151	1028	77072	1028	57537806
354	-1764	3723	158	-1402	9354	-51	15	151	1029	77171	1029	57537807
355	-1781	3738	155	-1399	9340	-57	7	149	1030	77222	1030	57537807
355	-1764	3709	151	-1396	9323	-57	7	149	1031	77321	1031	57537811
375	-1771	3712	152	-1395	9304	-49	5	151	1032	77372	1032	57537811
361	-1757	3694	148	-1390	9291	-49	5	151	1033	77471	1033	57537815
372	-1763	3707	147	-1388	9278	-52	4	154	1034	77522	1034	57537848
388	-1748	3697	142	-1383	9264	-52	4	154	1035	77621	1035	57537849
378	-1754	3675	143	-1379	9246	-53	-1	151	1036	77672	1036	57537852
406	-1757	3697	141	-1377	9234	-53	-1	151	1037	77771	1037	57537852
373	-1749	3712	140	-1377	9216	-59	3	151	1038	77822	1038	57537856
362	-1746	3714	138	-1375	9203	-59	3	151	1039	77921	1039	57537856
376	-1753	3732	138	-1375	9188	-54	2	152	1040	77972	1040	57537859
366	-1768	3726	136	-1372	9174	-54	2	152	1041	78071	1041	57537860
351	-1770	3732	139	-1370	9156	-55	-5	153	1042	78122	1042	57537860
357	-1770	3715	138	-1368	9142	-55	-5	153	1043	78221	1043	57537897
341	-1764	3722	137	-1365	9128	-57	-3	159	1044	78272	1044	57537898
330	-1768	3711	140	-1362	9094	-54	-12	156	1046	78291	1045	57537900
313	-1764	3735	138	-1360	9079	-54	-12	156	1047	78389	1046	57537900
324	-1765	3735	139	-1364	9061	-69	-7	153	1048	78440	1047	57537906
320	-1756	3715	138	-1363	9048	-69	-7	153	1049	78539	1048	57537907
294	-1744	3718	139	-1366	9032	-62	-10	148	1050	78590	1049	57537907
304	-1747	3698	138	-1366	9014	-62	-10	148	1051	78689	1050	57537909
294	-1764	3720	138	-1364	8999	-67	-15	153	1052	78740	1051	57537911
317	-1739	3707	136	-1363	8983	-67	-15	153	1053	78839	1052	57537945
313	-1743	3721	136	-1363	8967	-60	-20	156	1054	78890	1053	57537945
316	-1745	3698	135	-1364	8951	-60	-20	156	1055	78989	1054	57537947
307	-1740	3728	137	-1364	8935	-64	-16	152	1056	79040	1055	57537949
330	-1718	3718	138	-1364	8918	-64	-16	152	1057	79139	1056	57537949
331	-1730	3715	137	-1364	8903	-64	-18	146	1058	79190	1057	57537952
324	-1714	3716	135	-1364	8888	-64	-18	146	1059	79289	1058	57537953
322	-1719	3743	134	-1365	8873	-63	-19	149	1060	79340	1059	57537955
321	-1701	3721	130	-1361	8859	-63	-19	149	1061	79439	1060	57537960
320	-1710	3748	135	-1365	8846	-63	-25	151	1062	79490	1061	57537961
314	-1707	3704	134	-1367	8829	-63	-25	151	1063	79589	1062	57537971
323	-1703	3715	135	-1367	8815	-66	-28	156	1064	79640	1063	57537972
319	-1701	3724	135	-1364	8804	-66	-28	156	1065	79739	1064	57537974
322	-1698	3720	136	-1366	8787	-53	-33	157	1066	79790	1065	57537981
329	-1693	3737	132	-1365	8774	-53	-33	157	1067	79889	1066	57537982
334	-1682	3724	133	-1361	8763	-59	-31	149	1068	79939	1067	57538020
342	-1662	3715	132	-1359	8751	-59	-31	149	1069	80038	1068	57538020
320	-1674	3738	133	-1357	8738	-60	-34	156	1070	80089	1069	57538022
352	-1677	3708	132	-1352	8730	-60	-34	156	1071	80188	1070	57538024
354	-1675	3729	133	-1345	8716	-63	-35	147	1072	80239	1071	57538025
372	-1675	3704	134	-1342	8703	-63	-35	147	1073	80338	1072	57538054
370	-1673	3756	133	-1338	8695	-57	-43	145	1074	80389	1073	57538056
385	-1673	3732	133	-1333	8684	-57	-43	145	1075	80488	1074	57538057
368	-1681	3754	135	-1328	8674	-54	-44	150	1076	80539	1075	57538057
373	-1653	3747	139	-1321	8668	-54	-44	150	1077	80638	1076	57538060
373	-1668	3732	135	-1314	8656	-59	-45	151	1078	80688	1077	57538061
381	-1665	3721	137	-1311	8647	-59	-45	151	1079	80787	1078	57538062
397	-1665	3742	136	-1306	8639	-56	-48	150	1080	80838	1079	57538065
388	-1674	3748	131	-1306	8630	-56	-48	150	1081	80936	1080	57538065
398	-1639	3765	130	-1299	8618	-54	-50	142	1082	80987	1081	57538068
371	-1646	3718	129	-1293	8608	-54	-50	142	1083	81086	1082	57538069
367	-1659	3748	129	-1289	8599	-49	-59	147	1084	81137	1083	57538069
367	-1650	3739	133	-1282	8587	-49	-59	147	1085	81236	1084	57538106
375	-1654	3767	133	-1278	8579	-51	-53	153	1086	81287	1085	57538108
371	-1659	3729	132	-1275	8568	-51	-53	153	1087	81386	1086	57538108
348	-1655	3742	131	-1273	8558	-48	-56	148	1088	81437	1087	57538109
364	-1640	3729	135	-1268	8549	-48	-56	148	1089	81536	1088	57538109
344	-1641	3755	136	-1267	8538	-51	-49	137	1090	81587	1089	57538112
337	-1645	3745	132	-1264	8525	-51	-49	137	1091	81686	1090	57538113
330	-1648	3750	132	-1259	8516	-42	-54	146	1092	81737	1091	57538116
340	-1621	3729	133	-1258	8502	-42	-54	146	1093	81836	1092	57538118
335	-1618	3749	133	-1259	8487	-39	-63	145	1094	81887	1093	57538119
322	-1619	3721	128	-1257	8477	-39	-63	145	1095	81986	1094	57538156
319	-1615	3735	131	-1256	8464	-37	-65	147	1096	82037	1095	57538158
322	-1596	3745	128	-1254	8450	-37	-65	147	1097	82136	1096	57538158
323	-1607	3745	132	-1252	8440	-39	-65	145	1098	82187	1097	57538159
309	-1588	3731	132	-1250	8429	-39	-65	145	1099	82286	1098	57538159
310	-1596	3753	132	-1250	8413	-35	-63	141	1100	82337	1099	57538160
298	-1577	3754	129	-1249	8403	-35	-63	141	1101	82436	1100	57538160
312	-1578	3753	130	-1251	8392	-32	-64	144	1102	82487	1101	57538166
311	-1577	3729	126	-1249	8376	-32	-64	144	1103	82586	1102	57538166
335	-1578	3750	128	-1246	8366	-32	-68	142	1104	82637	1103	57538169
298	-1560	3762	122	-1243	8353	-32	-68	142	1105	82736	1104	57538201
310	-1574	3749	125	-1246	8337	-33	-63	139	1106	82787	1105	57538201
316	-1576	3760	124	-1246	8325	-33	-63	139	1107	82886	1106	57538205
315	-1565	3743	120	-1244	8317	-26	-66	140	1108	82937	1107	57538205
302	-1558	3761	120	-1240	8302	-26	-66	140	1109	83036	1108	57538207
312	-1574	3745	121	-1240	8290	-27	-71	137	1110	83087	1109	57538209
322	-1568	3753	120	-1236	8279	-27	-71	137	1111	83186	1110	57538209
322	-1564	3755	122	-1234	8267	-25	-69	139	1112	83237	1111	57538214
329	-1568	3736	119	-1235	8256	-25	-69	139	1113	83336	1112	57538214
295	-1560	3759	121	-1233	8246	-15	-71	143	1114	83387	1113	57538217
306	-1567	3746	120	-1232	8232	-15	-71	143	1115	83486	1114	57538250
310	-1562	3778	122	-1230	8220	-14	-74	142	1116	83537	1115	57538251
312	-1567	3760	121	-1227	8209	-14	-74	142	1117	83636	1116	57538256
312	-1564	3751	123	-1226	8198	-13	-73	139	1118	83687	1117	57538257
316	-1551	3748	122	-1224	8185	-13	-73	139	1119	83786	1118	57538257
289	-1562	3739	123	-1220	8176	-9	-73	139	1120	83837	1119	57538258
280	-1565	3750	124	-1218	8163	-9	-73	139	1121	83936	1120	57538259
318	-1551	3733	124	-1216	8152	-13	-73	131	1122	83987	1121	57538266
315	-1544	3754	122	-1213	8142	-13	-73	131	1123	84086	1122	57538266
307	-1542	3750	125	-1212	8130	5	-71	135	1124	84137	1123	57538267
313	-1556	3742	123	-1210	8114	5	-71	135	1125	84236	1124	57538275
326	-1543	3745	126	-1210	8109	-6	-70	132	1126	84287	1125	57538275
319	-1519	3739	124	-1205	8094	-6	-70	132	1127	84386	1126	57538289
315	-1535	3754	125	-1205	8082	-2	-76	134	1128	84437	1127	57538289
313	-1523	3745	121	-1201	8073	-2	-76	134	1129	84536	1128	57538323
303	-1527	3768	124	-1199	8063	5	-73	137	1130	84587	1129	57538324
335	-1524	3769	123	-1196	8050	5	-73	137	1131	84686	1130	57538324
299	-1520	3755	124	-1193	8040	3	-73	131	1132	84737	1131	57538327
305	-1517	3755	121	-1191	8029	3	-73	131	1133	84836	1132	57538328
313	-1519	3745	118	-1189	8015	11	-71	129	1134	84887	1133	57538334
292	-1520	3772	118	-1187	8004	11	-71	129	1135	84986	1134	57538334
309	-1503	3760	121	-1185	7996	7	-67	121	1136	85037	1135	57538336
319	-1519	3747	120	-1181	7981	7	-67	121	1137	85136	1136	57538337
309	-1506	3746	121	-1182	7969	10	-72	132	1138	85187	1137	57538338
312	-1515	3738	121	-1179	7958	10	-72	132	1139	85286	1138	57538349
288	-1503	3769	120	-1177	7944	22	-74	132	1140	85337	1139	57538349
283	-1505	3764	117	-1174	7935	22	-74	132	1141	85436	1140	57538353
306	-1493	3773	118	-1174	7922	18	-72	124	1142	85487	1141	57538386
290	-1497	3761	116	-1170	7908	18	-72	124	1143	85586	1142	57538387
287	-1487	3740	120	-1168	7895	12	-72	128	1144	85637	1143	57538390
299	-1499	3756	118	-1170	7883	12	-72	128	1145	85736	1144	57538390
283	-1482	3785	120	-1168	7870	19	-59	125	1146	85787	1145	57538392
283	-1487	3762	120	-1167	7857	19	-59	125	1147	85886	1146	57538396
282	-1478	3783	119	-1166	7848	25	-67	125	1148	85937	1147	57538396
294	-1470	3768	117	-1161	7831	25	-67	125	1149	86036	1148	57538397
288	-1481	3769	118	-1160	7818	24	-68	120	1150	86087	1149	57538398
277	-1480	3764	117	-1158	7809	24	-68	120	1151	86186	1150	57538400
292	-1464	3770	118	-1156	7794	27	-63	129	1152	86237	1151	57538437
278	-1460	3751	117	-1156	7777	27	-63	129	1153	86336	1152	57538459
279	-1468	3776	114	-1154	7764	31	-67	127	1154	86387	1153	57538459
289	-1464	3756	115	-1153	7752	31	-67	127	1155	86486	1154	57538459
280	-1448	3755	117	-1149	7739	32	-58	124	1156	86537	1155	57538460
267	-1443	3786	114	-1145	7728	32	-58	124	1157	86636	1156	57538460
301	-1448	3780	115	-1147	7717	32	-58	126	1158	86687	1157	57538460
267	-1438	3779	115	-1144	7702	32	-58	126	1159	86786	1158	57538460
283	-1436	3765	115	-1143	7691	35	-61	123	1160	86837	1159	57538460
292	-1450	3782	114	-1140	7678	35	-61	123	1161	86936	1160	57538482
279	-1435	3772	114	-1142	7661	38	-58	126	1162	86987	1161	57538482
290	-1440	3781	114	-1137	7650	38	-58	126	1163	87086	1162	57538485
263	-1421	3771	114	-1137	7636	41	-57	123	1164	87137	1163	57538487
265	-1433	3772	115	-1135	7624	41	-57	123	1165	87236	1164	57538488
274	-1442	3772	118	-1137	7612	41	-57	123	1166	87287	1165	57538490
266	-1428	3756	115	-1131	7599	41	-57	123	1167	87386	1166	57538491
266	-1404	3751	115	-1132	7586	41	-53	115	1168	87437	1167	57538493
251	-1428	3749	115	-1129	7575	41	-53	115	1169	87536	1168	57538498
250	-1415	3751	115	-1127	7561	44	-52	122	1170	87587	1169	57538498
266	-1402	3758	114	-1129	7548	44	-52	122	1171	87686	1170	57538509
252	-1416	3768	113	-1129	7535	45	-47	131	1172	87737	1171	57538510
260	-1398	3778	114	-1127	7522	45	-47	131	1173	87836	1172	57538513
256	-1411	3767	116	-1125	7508	44	-50	124	1174	87887	1173	57538545
251	-1410	3757	117	-1124	7496	44	-50	124	1175	87986	1174	57538545
257	-1407	3778	116	-1125	7483	52	-40	124	1176	88037	1175	57538548
261	-1419	3781	117	-1125	7468	52	-40	124	1177	88136	1176	57538549
259	-1387	3787	120	-1122	7457	53	-35	115	1178	88187	1177	57538551
252	-1405	3780	119	-1122	7444	53	-35	115	1179	88286	1178	57538552
233	-1393	3775	122	-1122	7432	51	-41	115	1180	88337	1179	57538553
246	-1394	3784	120	-1125	7420	51	-41	115	1181	88436	1180	57538556
250	-1400	3772	118	-1123	7409	51	-43	117	1182	88487	1181	57538556
242	-1381	3765	120	-1123	7395	51	-43	117	1183	88586	1182	57538558
251	-1381	3760	120	-1123	7383	53	-39	123	1184	88637	1183	57538591
251	-1391	3771	119	-1120	7373	53	-39	123	1185	88736	1184	57538591
195	-1351	3710	114	-1119	7359	54	-34	118	1186	88787	1185	57538595
206	-1394	3747	108	-1117	7349	54	-34	118	1187	88886	1186	57538595
229	-1310	3754	132	-1117	7342	50	-30	116	1188	88937	1187	57538598
207	-1359	3834	110	-1115	7335	50	-30	116	1189	89036	1188	57538599
212	-1370	3804	109	-1118	7325	52	-30	122	1190	89087	1189	57538601
198	-1303	3771	112	-1118	7323	52	-30	122	1191	89186	1190	57538607
194	-1344	3792	102	-1123	7316	56	-28	120	1192	89237	1191	57538608
147	-1304	3750	109	-1124	7312	56	-28	120	1193	89336	1192	57538618
-30	-1335	3572	77	-1124	7319	62	-28	124	1194	89387	1193	57538618
164	-1253	3839	96	-1109	7334	62	-28	124	1195	89486	1194	57538622
308	-1033	3814	138	-1116	7348	59	-23	123	1196	89537	1195	57538655
-74	-1598	3689	-21	-1134	7353	59	-23	123	1197	89636	1196	57538655
188	-1394	3969	91	-1100	7373	56	-22	122	1198	89687	1197	57538658
191	-964	3813	178	-1110	7376	56	-22	122	1199	89786	1198	57538659
124	-1609	3776	-37	-1132	7404	53	-19	117	1200	89837	1199	57538661
212	-1593	3991	88	-1130	7421	53	-19	117	1201	89936	1200	57538663
-30	-1294	3812	158	-1150	7409	52	-20	118	1202	89987	1201	57538663
-11	-1459	3740	46	-1142	7432	52	-20	118	1203	90086	1202	57538666
-54	-1338	3837	128	-1162	7454	53	-15	123	1204	90137	1203	57538666
-214	-1378	3743	93	-1194	7488	53	-15	123	1205	90236	1204	57538697
-167	-1486	3764	78	-1212	7532	56	-12	122	1206	90287	1205	57538698
-373	-1381	3821	130	-1241	7553	56	-12	122	1207	90386	1206	57538698
-306	-1521	3715	79	-1247	7598	54	-2	120	1208	90437	1207	57538700
-293	-1438	3765	144	-1263	7648	54	-2	120	1209	90536	1208	57538700
-289	-1436	3775	133	-1282	7712	52	-2	116	1210	90587	1209	57538702
-235	-1556	3680	85	-1290	7776	52	-2	116	1211	90686	1210	57538707
-324	-1550	3755	134	-1296	7820	51	-7	119	1212	90737	1211	57538709
-147	-1594	3692	128	-1281	7893	51	-7	119	1213	90836	1212	57538740
-83	-1472	3662	130	-1273	7962	54	-10	120	1214	90887	1213	57538740
-87	-1520	3703	106	-1265	8046	54	-10	120	1215	90986	1214	57538743
-39	-1727	3796	80	-1255	8125	49	-1	121	1216	91037	1215	57538744
-26	-1755	3838	118	-1244	8185	49	-1	121	1217	91136	1216	57538746
21	-1716	3753	104	-1237	8258	44	0	124	1218	91187	1217	57538747
51	-1623	3726	121	-1239	8326	44	0	124	1219	91286	1218	57538747
12	-1665	3705	110	-1251	8396	49	-1	119	1220	91337	1219	57538751
55	-1789	3714	90	-1253	8470	49	-1	119	1221	91436	1220	57538751
5	-1738	3753	128	-1266	8528	50	2	122	1222	91487	1221	57538755
50	-1771	3721	113	-1269	8592	50	2	122	1223	91586	1222	57538788
105	-1753	3725	123	-1275	8658	44	2	126	1224	91637	1223	57538788
101	-1761	3742	117	-1279	8726	44	2	126	1225	91736	1224	57538791
85	-1851	3693	99	-1285	8791	47	17	123	1226	91787	1225	57538791
64	-1804	3744	133	-1295	8848	47	17	123	1227	91886	1226	57538793
2	-1828	3726	128	-1299	8907	47	9	121	1228	91937	1227	57538795
23	-1845	3731	114	-1311	8966	47	9	121	1229	92036	1228	57538795
-48	-1849	3727	128	-1325	9023	44	14	126	1230	92087	1229	57538802
-58	-1912	3726	121	-1334	9090	44	14	126	1231	92186	1230	57538803
-103	-1853	3724	135	-1346	9146	46	16	134	1232	92237	1231	57538805
-144	-1894	3717	133	-1356	9203	46	16	134	1233	92336	1232	57538838
-136	-1887	3730	142	-1367	9267	36	18	128	1234	92387	1233	57538839
-175	-1873	3694	145	-1379	9330	36	18	128	1235	92486	1234	57538841
-170	-1908	3694	141	-1387	9391	35	15	127	1236	92537	1235	57538841
-197	-1911	3726	143	-1400	9452	35	15	127	1237	92636	1236	57538845
-163	-1941	3731	144	-1411	9511	33	21	131	1238	92687	1237	57538847
-177	-1959	3710	141	-1427	9568	33	21	131	1239	92786	1238	57538849
-173	-1983	3720	146	-1445	9624	27	25	127	1240	92837	1239	57538850
-140	-2024	3712	142	-1461	9673	27	25	127	1241	92936	1240	57538851
-123	-2028	3708	153	-1478	9721	30	18	130	1242	92987	1241	57538885
-106	-2048	3713	157	-1494	9767	30	18	130	1243	93086	1242	57538886
-50	-2088	3721	163	-1506	9814	28	22	130	1244	93137	1243	57538888
-17	-2114	3700	173	-1515	9855	28	22	130	1245	93236	1244	57538889
16	-2140	3713	174	-1522	9892	24	26	124	1246	93287	1245	57538889
69	-2146	3684	184	-1529	9928	24	26	124	1247	93386	1246	57538893
134	-2162	3660	189	-1533	9958	20	28	128	1248	93437	1247	57538895
225	-2189	3613	189	-1529	9986	20	28	128	1249	93536	1248	57538896
262	-2207	3664	198	-1528	10007	19	25	129	1250	93587	1249	57538901
321	-2219	3623	201	-1522	10024	19	25	129	1251	93686	1250	57538903
424	-2217	3666	205	-1518	10033	21	27	133	1252	93737	1251	57538911
469	-2234	3675	209	-1505	10032	21	27	133	1253	93836	1252	57538912
491	-2219	3655	218	-1495	10024	13	33	131	1254	93887	1253	57538915
515	-2185	3612	214	-1482	10016	13	33	131	1255	93986	1254	57538949
502	-2151	3664	222	-1469	10006	9	29	139	1256	94037	1255	57538950
499	-2077	3630	221	-1466	9987	9	29	139	1257	94136	1256	57538953
471	-2004	3689	218	-1457	9975	6	30	136	1258	94187	1257	57538954
461	-1962	3708	219	-1455	9957	6	30	136	1259	94286	1258	57538955
456	-1897	3724	216	-1456	9937	5	31	139	1260	94337	1259	57538956
433	-1845	3737	219	-1457	9917	5	31	139	1261	94436	1260	57538957
443	-1811	3712	213	-1461	9902	4	32	136	1262	94487	1261	57538960
429	-1781	3710	204	-1463	9883	4	32	136	1263	94586	1262	57538961
402	-1754	3715	200	-1468	9862	0	30	138	1264	94637	1263	57538971
421	-1735	3693	185	-1467	9847	0	30	138	1265	94736	1264	57538971
417	-1719	3661	180	-1466	9829	-5	29	141	1266	94787	1265	57538976
431	-1708	3653	167	-1461	9813	-5	29	141	1267	94886	1266	57538985
421	-1734	3661	157	-1454	9799	-7	27	139	1268	94937	1267	57538986
420	-1720	3676	149	-1447	9784	-7	27	139	1269	95036	1268	57538996
428	-1750	3708	142	-1440	9768	-6	34	142	1270	95087	1269	57538996
430	-1770	3705	133	-1436	9757	-6	34	142	1271	95186	1270	57539000
407	-1791	3728	131	-1435	9739	-16	32	140	1272	95237	1271	57539032
412	-1831	3715	122	-1426	9721	-16	32	140	1273	95336	1272	57539032
407	-1849	3709	124	-1423	9708	-19	29	149	1274	95387	1273	57539037
382	-1896	3687	119	-1422	9688	-19	29	149	1275	95486	1274	57539037
367	-1926	3715	121	-1420	9670	-20	30	146	1276	95537	1275	57539038
350	-1929	3697	122	-1416	9650	-20	30	146	1277	95636	1276	57539042
348	-1967	3711	123	-1414	9631	-25	29	143	1278	95687	1277	57539043
329	-1973	3725	130	-1413	9604	-25	29	143	1279	95786	1278	57539050
326	-1984	3724	134	-1413	9587	-18	24	142	1280	95837	1279	57539050
310	-1985	3703	139	-1411	9566	-18	24	142	1281	95936	1280	57539052
305	-1978	3733	146	-1413	9540	-24	28	148	1282	95987	1281	57539060
294	-1974	3701	150	-1412	9516	-24	28	148	1283	96086	1282	57539060
297	-1947	3714	158	-1410	9495	-28	24	146	1284	96137	1283	57539070
310	-1934	3699	160	-1412	9470	-28	24	146	1285	96236	1284	57539070
307	-1899	3703	163	-1412	9445	-34	26	146	1286	96287	1285	57539073
327	-1882	3716	165	-1411	9427	-34	26	146	1287	96386	1286	57539106
317	-1863	3671	168	-1410	9406	-33	27	151	1288	96437	1287	57539106
334	-1832	3698	171	-1408	9386	-33	27	151	1289	96536	1288	57539110
368	-1816	3717	172	-1407	9366	-34	28	146	1290	96587	1289	57539110
340	-1783	3707	169	-1400	9346	-34	28	146	1291	96686	1290	57539112
346	-1782	3724	170	-1399	9329	-32	22	148	1292	96737	1291	57539114
365	-1748	3710	163	-1399	9316	-32	22	148	1293	96836	1292	57539115
390	-1741	3710	162	-1396	9297	-38	20	146	1294	96887	1293	57539119
385	-1730	3700	155	-1391	9282	-38	20	146	1295	96986	1294	57539119
395	-1730	3718	153	-1386	9268	-41	17	147	1296	97037	1295	57539154
394	-1714	3707	150	-1385	9251	-41	17	147	1297	97136	1296	57539154
396	-1708	3715	145	-1382	9234	-38	12	152	1298	97187	1297	57539156
415	-1704	3726	143	-1376	9223	-38	12	152	1299	97286	1298	57539157
394	-1719	3712	142	-1372	9207	-44	16	146	1300	97337	1299	57539158
404	-1741	3718	137	-1368	9192	-44	16	146	1301	97436	1300	57539161
401	-1722	3709	138	-1362	9178	-48	22	148	1302	97487	1301	57539161
400	-1731	3702	131	-1357	9164	-48	22	148	1303	97586	1302	57539163
371	-1748	3739	133	-1354	9149	-51	13	149	1304	97637	1303	57539170
360	-1739	3726	133	-1350	9135	-51	13	149	1305	97736	1304	57539170
377	-1762	3701	132	-1349	9118	-50	6	150	1306	97787	1305	57539204
347	-1770	3720	130	-1343	9104	-50	6	150	1307	97886	1306	57539204
358	-1760	3714	133	-1341	9088	-48	6	152	1308	97937	1307	57539206
347	-1763	3753	134	-1340	9071	-48	6	152	1309	98036	1308	57539207
344	-1763	3704	131	-1336	9054	-56	8	146	1310	98087	1309	57539208
327	-1764	3729	135	-1336	9041	-56	8	146	1311	98186	1310	57539211
333	-1762	3728	134	-1335	9022	-56	4	152	1312	98237	1311	57539211
309	-1767	3702	135	-1338	9000	-56	4	152	1313	98336	1312	57539213
316	-1764	3692	135	-1338	8984	-53	5	149	1314	98387	1313	57539219
310	-1777	3696	137	-1336	8965	-53	5	149	1315	98486	1314	57539219
326	-1760	3701	137	-1337	8948	-63	-3	157	1316	98537	1315	57539253
326	-1750	3737	136	-1336	8933	-63	-3	157	1317	98636	1316	57539254
304	-1749	3722	140	-1335	8913	-54	-4	154	1318	98687	1317	57539256
344	-1725	3733	140	-1333	8894	-54	-4	154	1319	98786	1318	57539257
323	-1733	3737	140	-1336	8878	-59	5	151	1320	98837	1319	57539257
323	-1726	3722	144	-1337	8862	-59	5	151	1321	98936	1320	57539261
336	-1719	3712	142	-1336	8844	-61	-9	149	1322	98987	1321	57539261
321	-1703	3723	142	-1337	8831	-61	-9	149	1323	99086	1322	57539264
318	-1696	3715	143	-1339	8815	-58	-2	148	1324	99137	1323	57539265
315	-1690	3724	139	-1338	8797	-58	-2	148	1325	99236	1324	57539268
323	-1674	3737	140	-1340	8780	-55	-9	155	1326	99287	1325	57539301
302	-1690	3716	140	-1339	8767	-55	-9	155	1327	99386	1326	57539302
317	-1661	3715	140	-1338	8751	-62	-16	154	1328	99437	1327	57539309
318	-1654	3735	136	-1336	8734	-62	-16	154	1329	99536	1328	57539311
339	-1649	3730	139	-1336	8723	-63	-9	149	1330	99587	1329	57539311
325	-1654	3715	137	-1333	8706	-63	-9	149	1331	99686	1330	57539335
325	-1632	3721	136	-1332	8692	-67	-15	153	1332	99737	1331	57539335
347	-1634	3735	134	-1331	8681	-67	-15	153	1333	99836	1332	57539337
316	-1624	3728	134	-1330	8667	-62	-22	158	1334	99887	1333	57539337
336	-1628	3744	131	-1324	8653	-62	-22	158	1335	99986	1334	57539340
352	-1613	3728	133	-1324	8643	-60	-22	152	1336	100037	1335	57539341
340	-1628	3741	131	-1324	8629	-60	-22	152	1337	100136	1336	57539341
352	-1624	3746	131	-1326	8611	-62	-22	154	1338	100187	1337	57539344
332	-1629	3726	129	-1320	8600	-62	-22	154	1339	100286	1338	57539345
338	-1628	3727	128	-1318	8587	-65	-27	149	1340	100337	1339	57539347
340	-1631	3744	126	-1315	8575	-65	-27	149	1341	100436	1340	57539352
336	-1625	3714	129	-1314	8562	-60	-28	150	1342	100487	1341	57539353
345	-1615	3746	123	-1311	8547	-60	-28	150	1343	100586	1342	57539363
344	-1608	3718	124	-1311	8534	-61	-29	155	1344	100637	1343	57539364
323	-1618	3720	125	-1310	8526	-61	-29	155	1345	100736	1344	57539367
312	-1622	3737	126	-1304	8512	-62	-38	152	1346	100787	1345	57539400
325	-1624	3756	126	-1305	8498	-62	-38	152	1347	100886	1346	57539400
342	-1618	3734	127	-1303	8487	-64	-38	150	1348	100937	1347	57539404
329	-1627	3754	123	-1300	8474	-64	-38	150	1349	101036	1348	57539404
339	-1635	3740	125	-1300	8460	-57	-33	147	1350	101087	1349	57539406
327	-1614	3719	125	-1298	8451	-57	-33	147	1351	101186	1350	57539407
322	-1612	3749	128	-1289	8439	-57	-33	149	1352	101237	1351	57539408
343	-1615	3772	130	-1286	8430	-57	-33	149	1353	101336	1352	57539411
352	-1622	3730	128	-1283	8421	-54	-48	152	1354	101387	1353	57539411
348	-1612	3732	130	-1279	8408	-54	-48	152	1355	101486	1354	57539446
355	-1615	3743	129	-1276	8396	-53	-45	153	1356	101537	1355	57539447
343	-1606	3742	127	-1271	8389	-53	-45	153	1357	101636	1356	57539449
360	-1605	3736	132	-1268	8377	-56	-46	150	1358	101687	1357	57539450
354	-1591	3719	130	-1267	8364	-56	-46	150	1359	101786	1358	57539450
357	-1587	3746	131	-1267	8354	-55	-45	145	1360	101837	1359	57539454
353	-1574	3708	127	-1264	8345	-55	-45	145	1361	101936	1360	57539454
337	-1591	3740	125	-1260	8330	-49	-49	145	1362	101987	1361	57539458
342	-1584	3728	126	-1257	8322	-49	-49	145	1363	102086	1362	57539462
337	-1580	3735	127	-1251	8315	-51	-61	149	1364	102137	1363	57539465
351	-1573	3755	125	-1243	8303	-51	-61	149	1365	102236	1364	57539499
362	-1569	3766	127	-1241	8292	-51	-57	145	1366	102287	1365	57539511
349	-1588	3757	125	-1239	8284	-51	-57	145	1367	102386	1366	57539512
348	-1560	3758	131	-1233	8272	-42	-52	150	1368	102437	1367	57539512
349	-1566	3746	128	-1227	8263	-42	-52	150	1369	102536	1368	57539513
335	-1559	3756	129	-1228	8252	-47	-55	141	1370	102587	1369	57539513
337	-1549	3734	127	-1226	8238	-47	-55	141	1371	102686	1370	57539514
329	-1564	3747	124	-1222	8229	-44	-56	140	1372	102737	1371	57539514
333	-1540	3756	127	-1221	8219	-44	-56	140	1373	102836	1372	57539515
318	-1534	3772	123	-1223	8207	-40	-64	140	1374	102887	1373	57539516
322	-1548	3760	123	-1218	8193	-40	-64	140	1375	102986	1374	57539545
315	-1542	3736	126	-1216	8184	-37	-63	147	1376	103037	1375	57539545
316	-1550	3748	122	-1211	8170	-37	-63	147	1377	103136	1376	57539547
310	-1536	3756	125	-1213	8156	-37	-63	143	1378	103187	1377	57539548
313	-1516	3735	122	-1211	8147	-37	-63	143	1379	103286	1378	57539549
312	-1511	3757	121	-1208	8136	-30	-60	132	1380	103337	1379	57539552
305	-1545	3780	121	-1203	8122	-30	-60	132	1381	103436	1380	57539552
305	-1524	3735	124	-1206	8111	-31	-63	143	1382	103487	1381	57539557
297	-1522	3734	119	-1203	8098	-31	-63	143	1383	103586	1382	57539558
299	-1506	3766	119	-1203	8087	-31	-69	145	1384	103637	1383	57539558
295	-1514	3733	119	-1201	8077	-31	-69	145	1385	103736	1384	57539594
299	-1510	3731	122	-1202	8063	-31	-67	143	1386	103787	1385	57539594
305	-1513	3752	118	-1198	8048	-31	-67	143	1387	103886	1386	57539597
298	-1506	3750	120	-1197	8036	-25	-67	141	1388	103937	1387	57539598
304	-1487	3734	119	-1197	8026	-25	-67	141	1389	104036	1388	57539600
303	-1519	3736	117	-1195	8013	-24	-70	138	1390	104087	1389	57539601
290	-1505	3748	116	-1193	8005	-24	-70	138	1391	104186	1390	57539602
308	-1507	3742	119	-1194	7994	-22	-70	136	1392	104237	1391	57539607
308	-1513	3762	116	-1193	7977	-22	-70	136	1393	104336	1392	57539607
275	-1515	3768	118	-1192	7965	-12	-66	136	1394	104387	1393	57539610
269	-1521	3779	114	-1188	7952	-12	-66	136	1395	104486	1394	57539643
294	-1497	3777	119	-1190	7941	-15	-71	137	1396	104537	1395	57539646
292	-1504	3761	116	-1189	7932	-15	-71	137	1397	104636	1396	57539647
288	-1490	3767	117	-1188	7922	-13	-71	139	1398	104687	1397	57539647
298	-1486	3759	116	-1183	7909	-13	-71	139	1399	104786	1398	57539649
315	-1492	3743	120	-1183	7898	-11	-71	133	1400	104837	1399	57539650
284	-1482	3751	119	-1178	7885	-11	-71	133	1401	104936	1400	57539651
299	-1482	3774	122	-1178	7873	-11	-73	129	1402	104987	1401	57539658
302	-1484	3738	121	-1175	7865	-11	-73	129	1403	105086	1402	57539658
302	-1484	3758	122	-1170	7857	-3	-77	135	1404	105137	1403	57539660
308	-1482	3759	119	-1169	7841	-3	-77	135	1405	105236	1404	57539693
315	-1468	3778	119	-1168	7830	-5	-75	131	1406	105287	1405	57539697
325	-1467	3756	118	-1166	7822	-5	-75	131	1407	105386	1406	57539698
294	-1470	3787	118	-1165	7810	0	-74	132	1408	105437	1407	57539699
304	-1465	3742	115	-1159	7799	0	-74	132	1409	105536	1408	57539700
313	-1468	3743	117	-1162	7791	-2	-70	130	1410	105587	1409	57539732
305	-1460	3751	117	-1157	7775	-2	-70	130	1411	105686	1410	57539735
311	-1449	3765	119	-1155	7763	3	-73	131	1412	105737	1411	57539735
288	-1458	3758	113	-1150	7756	3	-73	131	1413	105836	1412	57539736
316	-1451	3757	119	-1149	7744	9	-73	139	1414	105887	1413	57539736
302	-1444	3756	117	-1149	7731	9	-73	139	1415	105986	1414	57539736
301	-1453	3767	115	-1145	7724	10	-68	130	1416	106037	1415	57539736
286	-1443	3744	115	-1143	7711	10	-68	130	1417	106136	1416	57539755
290	-1452	3757	113	-1142	7697	14	-68	132	1418	106187	1417	57539755
291	-1448	3784	112	-1140	7688	14	-68	132	1419	106286	1418	57539758
285	-1452	3787	114	-1136	7676	18	-68	128	1420	106337	1419	57539759
281	-1444	3771	113	-1133	7661	18	-68	128	1421	106436	1420	57539761
293	-1435	3773	115	-1132	7652	17	-71	125	1422	106487	1421	57539762
279	-1437	3761	115	-1133	7638	17	-71	125	1423	106586	1422	57539762
287	-1432	3784	114	-1131	7629	18	-66	126	1424	106637	1423	57539766
281	-1433	3757	111	-1127	7617	18	-66	126	1425	106736	1424	57539767
256	-1437	3771	113	-1128	7602	24	-66	130	1426	106787	1425	57539770
276	-1427	3776	112	-1126	7588	24	-66	130	1427	106886	1426	57539804
283	-1429	3792	114	-1125	7577	23	-71	127	1428	106937	1427	57539804
259	-1430	3752	113	-1121	7565	23	-71	127	1429	107036	1428	57539807
277	-1422	3761	115	-1121	7551	26	-72	128	1430	107087	1429	57539808
263	-1414	3777	113	-1121	7541	26	-72	128	1431	107186	1430	57539810
284	-1400	3772	111	-1119	7528	26	-66	124	1432	107237	1431	57539811
263	-1403	3766	109	-1117	7513	26	-66	124	1433	107336	1432	57539811
271	-1388	3773	112	-1117	7502	30	-58	126	1434	107387	1433	57539815
269	-1397	3774	112	-1112	7489	30	-58	126	1435	107486	1434	57539815
250	-1395	3760	110	-1113	7476	32	-64	122	1436	107537	1435	57539819
264	-1385	3774	111	-1111	7465	32	-64	122	1437	107636	1436	57539853
286	-1393	3775	112	-1108	7456	35	-59	121	1438	107687	1437	57539853
273	-1380	3756	109	-1107	7442	35	-59	121	1439	107786	1438	57539856
262	-1387	3775	110	-1105	7429	36	-60	122	1440	107837	1439	57539859
265	-1390	3776	110	-1104	7419	36	-60	122	1441	107936	1440	57539860
268	-1371	3800	114	-1101	7404	37	-55	125	1442	107987	1441	57539861
264	-1369	3770	109	-1097	7391	37	-55	125	1443	108086	1442	57539862
249	-1368	3792	109	-1099	7379	40	-56	122	1444	108137	1443	57539865
267	-1387	3766	111	-1101	7364	40	-56	122	1445	108236	1444	57539866
266	-1373	3771	113	-1100	7352	34	-54	120	1446	108287	1445	57539901
232	-1387	3770	111	-1095	7344	34	-54	120	1447	108386	1446	57539902
244	-1350	3769	113	-1095	7327	45	-53	121	1448	108437	1447	57539906
245	-1366	3777	111	-1095	7317	45	-53	121	1449	108536	1448	57539906
238	-1358	3776	113	-1091	7308	47	-51	117	1450	108587	1449	57539907
237	-1361	3762	111	-1088	7295	47	-51	117	1451	108686	1450	57539909
249	-1354	3769	111	-1091	7281	43	-51	117	1452	108737	1451	57539911
231	-1370	3789	110	-1089	7271	43	-51	117	1453	108836	1452	57539912
272	-1347	3792	113	-1087	7256	48	-44	120	1454	108887	1453	57539917
231	-1338	3762	111	-1085	7244	48	-44	120	1455	108986	1454	57539918
240	-1350	3785	112	-1085	7233	54	-50	120	1456	109037	1455	57539972
237	-1357	3785	112	-1087	7220	54	-50	120	1457	109136	1456	57539973
227	-1354	3776	115	-1082	7205	53	-43	123	1458	109187	1457	57539977
252	-1332	3785	114	-1086	7197	53	-43	123	1459	109286	1458	57539978
216	-1355	3770	114	-1087	7185	51	-39	117	1460	109337	1459	57539978
229	-1341	3774	114	-1087	7171	51	-39	117	1461	109436	1460	57539980
228	-1338	3740	116	-1085	7158	53	-41	119	1462	109487	1461	57539980
229	-1338	3777	113	-1083	7147	53	-41	119	1463	109586	1462	57539982
221	-1324	3768	113	-1083	7136	50	-36	118	1464	109637	1463	57539983
253	-1322	3798	114	-1083	7122	50	-36	118	1465	109736	1464	57539984
248	-1308	3793	113	-1083	7112	51	-35	115	1466	109787	1465	57539987
214	-1314	3810	114	-1083	7101	51	-35	115	1467	109886	1466	57539988
234	-1298	3783	113	-1082	7088	56	-30	116	1468	109937	1467	57539990
240	-1298	3790	112	-1081	7077	56	-30	116	1469	110036	1468	57539991
221	-1315	3803	117	-1084	7061	53	-33	117	1470	110087	1469	57539991
245	-1303	3777	113	-1084	7053	53	-33	117	1471	110186	1470	57540000
235	-1299	3780	114	-1083	7041	56	-34	122	1472	110237	1471	57540001
232	-1298	3789	116	-1080	7029	56	-34	122	1473	110336	1472	57540035
232	-1299	3769	116	-1083	7018	57	-33	125	1474	110387	1473	57540036
172	-1290	3735	115	-1082	7009	57	-33	125	1475	110486	1474	57540038
139	-1300	3680	100	-1079	7000	56	-28	120	1476	110537	1475	57540039
242	-1159	3725	122	-1058	7003	56	-28	120	1477	110636	1476	57540039
104	-1163	3614	89	-1063	7009	58	-20	122	1478	110687	1477	57540042
241	-1140	3625	49	-1038	7030	58	-20	122	1479	110786	1478	57540043
286	-885	3757	101	-1025	7044	51	-19	113	1480	110837	1479	57540045
126	-1184	3853	8	-1028	7064	51	-19	113	1481	110936	1480	57540048
468	-1138	3966	53	-1000	7102	56	-20	118	1482	110987	1481	57540048
227	-1147	4025	65	-1028	7097	56	-20	118	1483	111086	1482	57540082
223	-1412	3937	-14	-1029	7116	58	-20	122	1484	111137	1483	57540083
316	-1158	3848	108	-1028	7112	58	-20	122	1485	111236	1484	57540085
85	-1326	3882	61	-1056	7111	50	-14	122	1486	111287	1485	57540086
152	-1526	3770	12	-1048	7143	50	-14	122	1487	111386	1486	57540086
-19	-1177	3762	128	-1064	7136	55	-15	117	1488	111437	1487	57540090
-104	-1309	3738	62	-1060	7151	55	-15	117	1489	111536	1488	57540090
-43	-1350	3723	75	-1060	7174	49	-11	117	1490	111587	1489	57540092
-183	-1252	3745	109	-1075	7183	49	-11	117	1491	111686	1490	57540099
-134	-1404	3723	42	-1081	7221	55	-15	123	1492	111737	1491	57540099
-252	-1264	3788	111	-1105	7237	55	-15	123	1493	111836	1492	57540134
-277	-1361	3846	61	-1124	7261	54	-6	120	1494	111887	1493	57540135
-236	-1477	3789	43	-1143	7288	54	-6	120	1495	111986	1494	57540136
-337	-1339	3816	93	-1173	7313	48	-8	124	1496	112037	1495	57540137
-282	-1421	3772	46	-1190	7357	48	-8	124	1497	112136	1496	57540138
-305	-1418	3785	78	-1213	7384	49	-3	115	1498	112187	1497	57540141
-328	-1510	3765	65	-1229	7427	49	-3	115	1499	112286	1498	57540142
-270	-1537	3701	66	-1240	7475	49	3	115	1500	112337	1499	57540144
-299	-1454	3743	102	-1257	7518	49	3	115	1501	112436	1500	57540145
-254	-1567	3739	72	-1266	7583	47	1	123	1502	112487	1501	57540145
-272	-1601	3753	92	-1277	7632	47	1	123	1503	112586	1502	57540182
-215	-1657	3776	92	-1277	7696	45	7	125	1504	112637	1503	57540182
-150	-1632	3784	98	-1267	7769	45	7	125	1505	112736	1504	57540187
-153	-1618	3805	117	-1261	7839	46	0	122	1506	112787	1505	57540187
-85	-1699	3806	93	-1249	7916	46	0	122	1507	112886	1506	57540188
-57	-1701	3778	116	-1243	7987	45	5	119	1508	112937	1507	57540189
-16	-1692	3742	121	-1239	8058	45	5	119	1509	113036	1508	57540189
16	-1718	3715	117	-1238	8132	48	8	122	1510	113087	1509	57540194
-15	-1696	3695	130	-1243	8202	48	8	122	1511	113186	1510	57540196
8	-1792	3709	116	-1246	8274	41	11	125	1512	113237	1511	57540197
4	-1757	3684	132	-1252	8340	41	11	125	1513	113336	1512	57540230
34	-1752	3709	137	-1262	8404	43	5	129	1514	113387	1513	57540231
35	-1799	3716	131	-1268	8475	43	5	129	1515	113486	1514	57540234
15	-1786	3746	141	-1278	8532	38	12	126	1516	113537	1515	57540236
46	-1830	3710	128	-1291	8597	38	12	126	1517	113636	1516	57540236
55	-1837	3731	141	-1298	8657	35	17	125	1518	113687	1517	57540238
70	-1825	3721	145	-1305	8710	35	17	125	1519	113786	1518	57540239
69	-1884	3716	139	-1316	8765	38	12	126	1520	113837	1519	57540243
38	-1863	3711	151	-1321	8820	38	12	126	1521	113936	1520	57540243
42	-1850	3691	151	-1330	8877	35	13	133	1522	113987	1521	57540246
46	-1850	3694	152	-1336	8930	35	13	133	1523	114086	1522	57540279
22	-1854	3709	157	-1344	8983	34	16	132	1524	114137	1523	57540279
12	-1856	3717	162	-1343	9035	34	16	132	1525	114236	1524	57540282
6	-1833	3735	171	-1346	9080	33	27	125	1526	114287	1525	57540282
15	-1846	3745	165	-1352	9130	33	27	125	1527	114386	1526	57540286
-1	-1820	3717	172	-1360	9177	28	22	124	1528	114437	1527	57540287
-10	-1808	3721	170	-1369	9218	28	22	124	1529	114536	1528	57540289
12	-1800	3708	169	-1375	9264	29	31	133	1530	114587	1529	57540294
16	-1809	3730	172	-1383	9302	29	31	133	1531	114686	1530	57540297
10	-1827	3738	166	-1397	9342	28	24	132	1532	114737	1531	57540329
42	-1836	3727	171	-1408	9375	28	24	132	1533	114836	1532	57540329
54	-1867	3732	172	-1419	9405	22	24	138	1534	114887	1533	57540331
107	-1895	3749	176	-1424	9430	22	24	138	1535	114986	1534	57540332
138	-1938	3751	182	-1431	9455	12	30	132	1536	115037	1535	57540333
218	-1977	3674	180	-1430	9471	12	30	132	1537	115136	1536	57540337
272	-1993	3654	184	-1427	9477	11	33	131	1538	115187	1537	57540337
367	-1950	3637	192	-1415	9484	11	33	131	1539	115286	1538	57540339
443	-1979	3674	189	-1406	9486	11	29	129	1540	115337	1539	57540341
415	-1984	3643	180	-1404	9474	11	29	129	1541	115436	1540	57540342
432	-1976	3629	184	-1397	9463	14	24	138	1542	115487	1541	57540376
412	-1934	3682	200	-1386	9448	14	24	138	1543	115586	1542	57540376
411	-1856	3694	196	-1378	9433	7	31	133	1544	115637	1543	57540378
446	-1791	3732	190	-1375	9419	7	31	133	1545	115736	1544	57540380
372	-1772	3774	191	-1380	9400	6	28	126	1546	115787	1545	57540380
379	-1759	3766	186	-1379	9381	6	28	126	1547	115886	1546	57540383
372	-1681	3744	200	-1382	9359	4	28	136	1548	115937	1547	57540386
375	-1670	3743	185	-1383	9343	4	28	136	1549	116036	1548	57540387
387	-1662	3704	175	-1381	9326	-2	30	140	1550	116087	1549	57540387
352	-1632	3694	172	-1389	9306	-2	30	140	1551	116186	1550	57540388
354	-1668	3693	155	-1386	9296	-2	34	136	1552	116237	1551	57540426
363	-1597	3669	161	-1379	9275	-2	34	136	1553	116336	1552	57540426
361	-1625	3685	146	-1376	9257	-6	24	140	1554	116387	1553	57540430
401	-1640	3706	137	-1368	9245	-6	24	140	1555	116486	1554	57540430
361	-1638	3723	139	-1367	9229	-5	31	139	1556	116537	1555	57540432
371	-1681	3750	122	-1360	9213	-5	31	139	1557	116636	1556	57540433
354	-1668	3726	129	-1357	9196	-17	29	141	1558	116687	1557	57540434
375	-1685	3731	122	-1353	9181	-17	29	141	1559	116786	1558	57540437
369	-1736	3718	115	-1352	9162	-17	27	135	1560	116837	1559	57540438
350	-1743	3737	119	-1349	9144	-17	27	135	1561	116936	1560	57540441
342	-1778	3734	115	-1347	9127	-13	29	149	1562	116987	1561	57540473
331	-1790	3729	121	-1342	9108	-13	29	149	1563	117086	1562	57540474
335	-1796	3730	126	-1341	9092	-21	31	141	1564	117137	1563	57540477
320	-1810	3709	122	-1341	9070	-21	31	141	1565	117236	1564	57540478
309	-1805	3726	130	-1338	9047	-28	32	136	1566	117287	1565	57540480
317	-1816	3732	130	-1337	9032	-28	32	136	1567	117386	1566	57540481
324	-1799	3746	138	-1334	9010	-26	28	142	1568	117437	1567	57540481
304	-1796	3732	140	-1331	8990	-26	28	142	1569	117536	1568	57540486
309	-1802	3740	144	-1332	8973	-25	25	149	1570	117587	1569	57540487
293	-1775	3737	148	-1332	8949	-25	25	149	1571	117686	1570	57540492
320	-1752	3702	148	-1329	8928	-27	25	149	1572	117737	1571	57540525
317	-1741	3716	152	-1329	8911	-27	25	149	1573	117836	1572	57540526
337	-1705	3725	156	-1328	8890	-31	25	149	1574	117887	1573	57540529
335	-1698	3721	152	-1325	8871	-31	25	149	1575	117986	1574	57540529
326	-1678	3719	159	-1326	8855	-36	28	142	1576	118037	1575	57540531
350	-1663	3729	153	-1322	8837	-36	28	142	1577	118136	1576	57540533
362	-1657	3725	154	-1322	8817	-41	23	147	1578	118187	1577	57540533
343	-1622	3734	151	-1320	8801	-41	23	147	1579	118286	1578	57540536
353	-1630	3717	145	-1316	8787	-33	19	147	1580	118337	1579	57540538
351	-1600	3728	144	-1314	8768	-33	19	147	1581	118436	1580	57540571
373	-1622	3732	145	-1310	8756	-34	18	152	1582	118487	1581	57540571
373	-1595	3735	139	-1305	8742	-34	18	152	1583	118586	1582	57540572
378	-1597	3735	139	-1299	8725	-44	20	146	1584	118637	1583	57540576
372	-1578	3738	132	-1294	8712	-44	20	146	1585	118736	1584	57540577
371	-1607	3748	135	-1292	8696	-46	20	146	1586	118787	1585	57540579
376	-1609	3728	129	-1289	8682	-46	20	146	1587	118886	1586	57540579
360	-1626	3734	129	-1284	8670	-43	23	149	1588	118937	1587	57540581
363	-1600	3734	125	-1281	8655	-43	23	149	1589	119036	1588	57540587
366	-1622	3758	124	-1278	8639	-45	15	155	1590	119087	1589	57540588
345	-1616	3746	125	-1271	8625	-45	15	155	1591	119186	1590	57540615
346	-1633	3747	123	-1269	8609	-48	14	156	1592	119237	1591	57540615
346	-1617	3747	122	-1268	8592	-48	14	156	1593	119336	1592	57540618
343	-1626	3742	124	-1269	8579	-53	13	153	1594	119387	1593	57540619
332	-1619	3743	123	-1267	8564	-53	13	153	1595	119486	1594	57540619
331	-1631	3764	125	-1263	8545	-47	9	147	1596	119537	1595	57540622
317	-1620	3728	124	-1261	8531	-47	9	147	1597	119636	1596	57540623
315	-1622	3741	127	-1258	8515	-49	11	151	1598	119687	1597	57540625
304	-1634	3744	128	-1258	8496	-49	11	151	1599	119786	1598	57540659
309	-1623	3763	129	-1257	8479	-58	8	156	1600	119837	1599	57540667
289	-1625	3755	130	-1258	8463	-58	8	156	1601	119936	1600	57540667
311	-1626	3746	131	-1257	8447	-55	3	153	1602	119987	1601	57540668
313	-1615	3741	130	-1258	8430	-55	3	153	1603	120086	1602	57540668
295	-1610	3736	130	-1257	8415	-57	3	151	1604	120137	1603	57540668
306	-1606	3726	133	-1255	8396	-57	3	151	1605	120236	1604	57540669
303	-1583	3745	133	-1257	8379	-59	3	149	1606	120287	1605	57540671
306	-1581	3747	131	-1256	8369	-59	3	149	1607	120386	1606	57540672
317	-1562	3749	129	-1253	8351	-64	4	154	1608	120437	1607	57540675
285	-1572	3760	133	-1252	8333	-64	4	154	1609	120536	1608	57540709
307	-1553	3745	133	-1252	8320	-58	-8	156	1610	120587	1609	57540709
302	-1554	3755	132	-1250	8305	-58	-8	156	1611	120686	1610	57540712
300	-1555	3750	133	-1249	8288	-65	-7	157	1612	120737	1611	57540713
311	-1558	3751	130	-1249	8276	-65	-7	157	1613	120836	1612	57540716
314	-1538	3760	132	-1252	8261	-64	-8	156	1614	120887	1613	57540716
299	-1521	3760	131	-1250	8244	-64	-8	156	1615	120986	1614	57540718
292	-1533	3728	134	-1252	8234	-62	-10	150	1616	121037	1615	57540720
308	-1522	3763	128	-1245	8222	-62	-10	150	1617	121136	1616	57540720
313	-1522	3745	127	-1248	8205	-62	-12	152	1618	121187	1617	57540756
307	-1520	3739	125	-1246	8191	-62	-12	152	1619	121286	1618	57540756
307	-1511	3761	125	-1244	8181	-60	-14	154	1620	121337	1619	57540759
301	-1502	3752	121	-1242	8164	-60	-14	154	1621	121436	1620	57540760
313	-1508	3741	125	-1240	8154	-63	-13	149	1622	121487	1621	57540760
320	-1510	3743	120	-1239	8143	-63	-13	149	1623	121586	1622	57540763
322	-1509	3746	124	-1238	8124	-62	-16	152	1624	121637	1623	57540764
315	-1503	3767	121	-1237	8114	-62	-16	152	1625	121736	1624	57540766
307	-1498	3756	122	-1233	8102	-65	-21	153	1626	121787	1625	57540769
309	-1521	3753	119	-1235	8085	-65	-21	153	1627	121886	1626	57540769
323	-1497	3757	118	-1235	8073	-61	-23	151	1628	121937	1627	57540805
307	-1502	3767	120	-1233	8062	-61	-23	151	1629	122036	1628	57540805
289	-1499	3783	117	-1233	8048	-58	-26	160	1630	122087	1629	57540808
308	-1502	3751	116	-1232	8037	-58	-26	160	1631	122186	1630	57540809
299	-1487	3745	115	-1230	8023	-62	-20	148	1632	122237	1631	57540809
299	-1499	3746	114	-1230	8008	-62	-20	148	1633	122336	1632	57540812
297	-1493	3764	114	-1229	7997	-61	-27	147	1634	122387	1633	57540813
289	-1482	3758	116	-1225	7986	-61	-27	147	1635	122486	1634	57540815
292	-1490	3758	116	-1227	7972	-61	-33	153	1636	122537	1635	57540820
309	-1488	3783	115	-1224	7959	-61	-33	153	1637	122636	1636	57540820
308	-1493	3754	114	-1222	7949	-61	-37	151	1638	122687	1637	57540831
294	-1491	3765	116	-1221	7935	-61	-37	151	1639	122786	1638	57540831
290	-1495	3773	116	-1220	7921	-59	-39	153	1640	122837	1639	57540833
291	-1478	3747	114	-1219	7912	-59	-39	153	1641	122936	1640	57540866
314	-1489	3775	116	-1217	7899	-61	-35	151	1642	122987	1641	57540867
307	-1490	3750	115	-1213	7888	-61	-35	151	1643	123086	1642	57540870
306	-1477	3753	116	-1210	7878	-57	-39	149	1644	123137	1643	57540870
314	-1496	3758	115	-1205	7869	-57	-39	149	1645	123236	1644	57540874
327	-1483	3755	117	-1201	7858	-59	-43	149	1646	123287	1645	57540874
321	-1458	3751	115	-1196	7852	-59	-43	149	1647	123386	1646	57540876
330	-1465	3766	120	-1191	7839	-53	-49	149	1648	123437	1647	57540878
334	-1474	3759	118	-1184	7832	-53	-49	149	1649	123536	1648	57540879
343	-1472	3751	118	-1188	7822	-54	-46	152	1650	123587	1649	57540915
336	-1475	3746	118	-1181	7812	-54	-46	152	1651	123686	1650	57540917
334	-1468	3762	118	-1179	7798	-59	-49	151	1652	123737	1651	57540917
332	-1453	3758	114	-1177	7792	-59	-49	151	1653	123836	1652	57540918
318	-1457	3766	114	-1175	7780	-50	-46	146	1654	123887	1653	57540919
329	-1451	3746	113	-1171	7771	-50	-46	146	1655	123986	1654	57540921
334	-1430	3774	114	-1171	7765	-48	-54	148	1656	124037	1655	57540922
319	-1443	3761	112	-1166	7752	-48	-54	148	1657	124136	1656	57540926
312	-1446	3759	112	-1161	7742	-53	-51	141	1658	124187	1657	57540930
309	-1441	3768	113	-1155	7733	-53	-51	141	1659	124286	1658	57540930
322	-1441	3768	117	-1147	7726	-50	-52	146	1660	124337	1659	57540964
320	-1453	3761	112	-1145	7711	-50	-52	146	1661	124436	1660	57540965
319	-1430	3763	116	-1144	7702	-47	-61	147	1662	124487	1661	57540969
316	-1425	3762	112	-1138	7694	-47	-61	147	1663	124586	1662	57540980
320	-1439	3759	113	-1141	7680	-40	-56	142	1664	124637	1663	57540981
301	-1417	3757	115	-1139	7669	-40	-56	142	1665	124736	1664	57540982
304	-1427	3761	115	-1137	7658	-44	-56	142	1666	124787	1665	57540982
300	-1420	3762	113	-1135	7648	-44	-56	142	1667	124886	1666	57540983
288	-1406	3768	115	-1133	7638	-40	-60	146	1668	124937	1667	57540983
303	-1422	3782	113	-1132	7628	-40	-60	146	1669	125036	1668	57540983
293	-1405	3766	114	-1134	7616	-36	-70	144	1670	125087	1669	57541012
294	-1413	3738	112	-1126	7604	-36	-70	144	1671	125186	1670	57541012
294	-1410	3791	111	-1127	7592	-35	-63	147	1672	125237	1671	57541015
290	-1407	3781	112	-1129	7578	-35	-63	147	1673	125336	1672	57541016
288	-1399	3776	113	-1127	7567	-34	-62	140	1674	125387	1673	57541016
284	-1399	3756	111	-1121	7559	-34	-62	140	1675	125486	1674	57541020
285	-1388	3762	112	-1124	7548	-35	-65	141	1676	125537	1675	57541020
281	-1382	3743	109	-1122	7535	-35	-65	141	1677	125636	1676	57541023
294	-1381	3779	107	-1123	7523	-33	-65	139	1678	125687	1677	57541024
261	-1400	3796	107	-1121	7509	-33	-65	139	1679	125786	1678	57541030
285	-1400	3794	109	-1119	7496	-27	-71	145	1680	125837	1679	57541062
292	-1359	3783	106	-1117	7490	-27	-71	145	1681	125936	1680	57541063
284	-1391	3766	110	-1116	7475	-21	-71	141	1682	125987	1681	57541066
284	-1371	3778	106	-1116	7465	-21	-71	141	1683	126086	1682	57541066
274	-1380	3784	107	-1113	7452	-28	-68	136	1684	126137	1683	57541069
287	-1376	3775	107	-1113	7441	-28	-68	136	1685	126236	1684	57541070
279	-1394	3783	106	-1110	7429	-15	-71	135	1686	126287	1685	57541070
284	-1382	3774	102	-1108	7421	-15	-71	135	1687	126386	1686	57541073
271	-1396	3774	105	-1110	7410	-18	-72	140	1688	126437	1687	57541074
291	-1363	3766	107	-1109	7396	-18	-72	140	1689	126536	1688	57541077
268	-1386	3773	105	-1111	7391	-21	-67	141	1690	126587	1689	57541110
261	-1389	3782	108	-1109	7380	-21	-67	141	1691	126686	1690	57541111
274	-1368	3769	109	-1103	7366	-14	-68	134	1692	126737	1691	57541117
280	-1377	3780	105	-1101	7357	-14	-68	134	1693	126836	1692	57541117
280	-1365	3770	109	-1099	7348	-15	-71	133	1694	126887	1693	57541118
281	-1382	3776	108	-1096	7337	-15	-71	133	1695	126986	1694	57541119
281	-1381	3784	108	-1094	7326	-4	-70	132	1696	127037	1695	57541119
297	-1371	3780	106	-1091	7316	-4	-70	132	1697	127136	1696	57541122
277	-1366	3777	108	-1089	7304	-10	-74	134	1698	127187	1697	57541123
286	-1357	3772	107	-1090	7295	-10	-74	134	1699	127286	1698	57541128
292	-1348	3804	108	-1088	7287	-3	-77	135	1700	127337	1699	57541161
275	-1344	3780	108	-1085	7275	-3	-77	135	1701	127436	1700	57541162
279	-1359	3762	108	-1083	7264	-4	-74	136	1702	127487	1701	57541165
294	-1343	3782	106	-1080	7257	-4	-74	136	1703	127586	1702	57541165
282	-1343	3794	108	-1076	7244	-1	-65	125	1704	127637	1703	57541167
282	-1338	3780	106	-1075	7233	-1	-65	125	1705	127736	1704	57541171
280	-1343	3752	108	-1074	7223	1	-71	133	1706	127787	1705	57541171
278	-1337	3773	104	-1070	7212	1	-71	133	1707	127886	1706	57541176
293	-1343	3786	103	-1071	7201	7	-73	131	1708	127937	1707	57541176
257	-1346	3781	104	-1065	7196	7	-73	131	1709	128036	1708	57541185
276	-1339	3785	105	-1065	7181	10	-78	132	1710	128087	1709	57541185
279	-1318	3772	107	-1062	7173	10	-78	132	1711	128186	1710	57541188
285	-1318	3772	106	-1063	7161	12	-76	134	1712	128237	1711	57541223
263	-1321	3790	104	-1058	7149	12	-76	134	1713	128336	1712	57541223
251	-1332	3786	106	-1055	7138	13	-75	131	1714	128387	1713	57541226
239	-1334	3770	104	-1056	7131	13	-75	131	1715	128486	1714	57541226
277	-1325	3781	105	-1055	7116	15	-65	127	1716	128537	1715	57541228
249	-1331	3779	104	-1052	7104	15	-65	127	1717	128636	1716	57541255
249	-1329	3795	105	-1052	7095	18	-68	126	1718	128687	1717	57541256
259	-1322	3777	104	-1051	7080	18	-68	126	1719	128786	1718	57541259
264	-1321	3773	102	-1050	7069	15	-69	131	1720	128837	1719	57541259
237	-1309	3765	101	-1046	7061	15	-69	131	1721	128936	1720	57541261
246	-1318	3797	101	-1045	7048	14	-66	124	1722	128987	1721	57541265
264	-1293	3803	103	-1046	7037	14	-66	124	1723	129086	1722	57541268
266	-1297	3771	102	-1042	7028	22	-64	126	1724	129137	1723	57541271
254	-1291	3788	101	-1040	7014	22	-64	126	1725	129236	1724	57541272
250	-1276	3784	101	-1039	6999	19	-65	129	1726	129287	1725	57541273
244	-1296	3782	98	-1040	6990	19	-65	129	1727	129386	1726	57541273
248	-1292	3783	101	-1039	6980	25	-63	129	1728	129437	1727	57541275
254	-1295	3785	100	-1037	6964	25	-63	129	1729	129536	1728	57541308
250	-1279	3783	103	-1035	6956	26	-66	126	1730	129587	1729	57541316
239	-1290	3773	100	-1033	6944	26	-66	126	1731	129686	1730	57541325
241	-1279	3785	102	-1031	6929	32	-64	126	1732	129737	1731	57541326
236	-1277	3771	100	-1028	6920	32	-64	126	1733	129836	1732	57541326
254	-1281	3791	100	-1029	6912	32	-64	120	1734	129887	1733	57541326
279	-1261	3785	98	-1028	6895	32	-64	120	1735	129986	1734	57541326
231	-1286	3807	99	-1026	6884	34	-54	122	1736	130037	1735	57541327
249	-1279	3785	97	-1023	6879	34	-54	122	1737	130136	1736	57541327
242	-1272	3794	101	-1022	6864	35	-65	123	1738	130187	1737	57541327
251	-1275	3806	101	-1023	6853	35	-65	123	1739	130286	1738	57541355
251	-1273	3811	101	-1018	6840	39	-59	123	1740	130337	1739	57541355
235	-1270	3798	99	-1018	6826	39	-59	123	1741	130436	1740	57541359
231	-1277	3808	101	-1016	6815	38	-58	124	1742	130487	1741	57541359
243	-1260	3802	100	-1012	6809	38	-58	124	1743	130586	1742	57541361
249	-1258	3771	101	-1013	6795	41	-61	125	1744	130637	1743	57541363
237	-1252	3789	102	-1011	6784	41	-61	125	1745	130736	1744	57541364
231	-1256	3775	102	-1010	6774	39	-53	123	1746	130787	1745	57541367
223	-1267	3799	99	-1012	6762	39	-53	123	1747	130886	1746	57541387
214	-1258	3806	105	-1011	6748	43	-53	123	1748	130937	1747	57541388
244	-1257	3831	102	-1009	6739	43	-53	123	1749	131036	1748	57541404
241	-1241	3814	102	-1006	6728	40	-54	128	1750	131087	1749	57541405
254	-1241	3808	101	-1005	6714	40	-54	128	1751	131186	1750	57541407
252	-1247	3792	104	-1006	6704	44	-48	118	1752	131237	1751	57541408
231	-1231	3810	103	-1005	6690	44	-48	118	1753	131336	1752	57541410
233	-1242	3794	103	-1008	6677	43	-47	119	1754	131387	1753	57541411
241	-1241	3800	103	-1008	6668	43	-47	119	1755	131486	1754	57541412
224	-1242	3774	103	-1005	6655	49	-49	121	1756	131537	1755	57541416
213	-1217	3815	107	-1004	6644	49	-49	121	1757	131636	1756	57541417
214	-1230	3804	108	-1004	6634	51	-41	129	1758	131687	1757	57541420
215	-1237	3782	104	-1005	6622	51	-41	129	1759	131786	1758	57541452
199	-1228	3788	106	-1005	6610	48	-40	122	1760	131837	1759	57541453
211	-1220	3784	103	-1003	6602	48	-40	122	1761	131936	1760	57541456
209	-1213	3796	105	-1004	6591	48	-42	122	1762	131987	1761	57541456
207	-1204	3803	106	-1002	6580	48	-42	122	1763	132086	1762	57541459
226	-1217	3780	105	-1003	6567	56	-36	120	1764	132137	1763	57541462
205	-1206	3794	103	-1000	6554	56	-36	120	1765	132236	1764	57541463
238	-1208	3808	102	-1001	6541	52	-36	120	1766	132287	1765	57541466
176	-1169	3766	105	-998	6534	52	-36	120	1767	132386	1766	57541466
-433	-1073	3270	58	-1005	6536	56	-36	122	1768	132437	1767	57541502
129	-803	3390	36	-994	6565	56	-36	122	1769	132536	1768	57541503
836	-167	3812	219	-958	6627	53	-33	125	1770	132587	1769	57541504
-449	-1715	3967	-201	-1050	6622	53	-33	125	1771	132686	1770	57541506
112	-1586	3812	-29	-981	6670	52	-32	120	1772	132737	1771	57541507
425	-94	3801	376	-968	6637	52	-32	120	1773	132836	1772	57541510
-108	-1650	4060	-152	-1015	6673	51	-29	121	1774	132887	1773	57541510
592	-1534	3902	3	-967	6756	51	-29	121	1775	132986	1774	57541512
-24	-756	4028	243	-1030	6715	49	-25	123	1776	133037	1775	57541515
-42	-1800	4064	-107	-1031	6750	49	-25	123	1777	133136	1776	57541516
17	-1261	3919	160	-1054	6731	57	-23	119	1778	133187	1777	57541550
-446	-1193	3754	112	-1106	6739	57	-23	119	1779	133286	1778	57541550
-249	-1547	3619	2	-1111	6821	52	-26	122	1780	133337	1779	57541552
-618	-938	3674	222	-1152	6833	52	-26	122	1781	133436	1780	57541554
-613	-1533	3676	6	-1153	6902	54	-22	118	1782	133487	1781	57541554
-456	-1501	3710	98	-1153	6957	54	-22	118	1783	133586	1782	57541557
-592	-1124	3766	187	-1178	7007	56	-22	120	1784	133637	1783	57541558
-383	-1473	3650	18	-1182	7105	56	-22	120	1785	133736	1784	57541560
-420	-1250	3845	147	-1208	7165	57	-15	113	1786	133787	1785	57541566
-349	-1497	3856	69	-1212	7242	57	-15	113	1787	133886	1786	57541566
-234	-1556	3776	57	-1213	7324	52	-16	122	1788	133937	1787	57541601
-209	-1237	3811	146	-1221	7406	52	-16	122	1789	134036	1788	57541602
-115	-1489	3787	38	-1216	7514	55	-17	123	1790	134087	1789	57541604
-165	-1449	3809	78	-1214	7604	55	-17	123	1791	134186	1790	57541605
-158	-1466	3784	76	-1199	7706	55	-7	119	1792	134237	1791	57541605
-77	-1544	3715	55	-1186	7810	55	-7	119	1793	134336	1792	57541609
-84	-1398	3764	103	-1185	7913	50	-12	118	1794	134387	1793	57541609
-62	-1516	3733	67	-1191	8028	50	-12	118	1795	134486	1794	57541612
-183	-1620	3742	62	-1202	8125	53	-11	117	1796	134537	1795	57541612
-129	-1598	3789	92	-1202	8228	53	-11	117	1797	134636	1796	57541616
-128	-1587	3749	89	-1211	8332	56	-14	124	1798	134687	1797	57541648
-127	-1658	3720	69	-1227	8434	56	-14	124	1799	134786	1798	57541669
-149	-1759	3762	74	-1247	8534	50	-6	124	1800	134837	1799	57541669
-209	-1794	3736	85	-1264	8626	50	-6	124	1801	134936	1800	57541670
-207	-1818	3713	87	-1275	8717	45	-1	121	1802	134987	1801	57541670
-182	-1785	3731	111	-1289	8807	45	-1	121	1803	135086	1802	57541670
-207	-1851	3724	102	-1309	8900	47	5	121	1804	135137	1803	57541671
-208	-1899	3747	100	-1326	8995	47	5	121	1805	135236	1804	57541671
-259	-1931	3788	113	-1350	9079	54	4	122	1806	135287	1805	57541671
-252	-1966	3768	109	-1364	9167	54	4	122	1807	135386	1806	57541671
-223	-1951	3734	124	-1382	9251	52	4	124	1808	135437	1807	57541699
-223	-1963	3722	125	-1398	9333	52	4	124	1809	135536	1808	57541699
-208	-2006	3688	120	-1411	9417	43	5	125	1810	135587	1809	57541702
-211	-1999	3643	135	-1424	9496	43	5	125	1811	135686	1810	57541703
-192	-2030	3672	134	-1431	9573	41	11	127	1812	135737	1811	57541705
-196	-2032	3680	140	-1437	9650	41	11	127	1813	135836	1812	57541708
-218	-2058	3672	140	-1452	9729	37	15	123	1814	135887	1813	57541710
-217	-2066	3662	133	-1465	9803	37	15	123	1815	135986	1814	57541710
-239	-2086	3688	139	-1479	9873	38	12	126	1816	136037	1815	57541712
-242	-2102	3671	134	-1490	9948	38	12	126	1817	136136	1816	57541713
-235	-2120	3686	138	-1508	10013	37	15	125	1818	136187	1817	57541745
-246	-2141	3676	135	-1525	10083	37	15	125	1819	136286	1818	57541745
-281	-2177	3669	137	-1538	10151	38	16	128	1820	136337	1819	57541748
-289	-2177	3619	140	-1551	10217	38	16	128	1821	136436	1820	57541749
-303	-2199	3660	139	-1565	10289	36	24	126	1822	136487	1821	57541752
-301	-2198	3618	137	-1582	10359	36	24	126	1823	136586	1822	57541752
-288	-2220	3635	142	-1598	10432	28	24	124	1824	136637	1823	57541754
-320	-2253	3640	141	-1610	10501	28	24	124	1825	136736	1824	57541760
-283	-2274	3663	143	-1626	10578	22	22	132	1826	136787	1825	57541760
-267	-2312	3664	144	-1639	10648	22	22	132	1827	136886	1826	57541795
-240	-2335	3694	148	-1656	10719	29	23	133	1828	136937	1827	57541801
-219	-2389	3691	153	-1675	10792	29	23	133	1829	137036	1828	57541803
-174	-2422	3707	164	-1688	10858	27	23	127	1830	137087	1829	57541805
-172	-2459	3687	172	-1702	10922	27	23	127	1831	137186	1830	57541806
-134	-2488	3696	184	-1721	10984	21	27	127	1832	137237	1831	57541806
-124	-2525	3666	196	-1735	11042	21	27	127	1833	137336	1832	57541806
-69	-2564	3627	208	-1747	11093	15	33	129	1834	137387	1833	57541811
-34	-2556	3616	222	-1750	11147	15	33	129	1835	137486	1834	57541811
14	-2591	3611	232	-1751	11193	11	29	137	1836	137537	1835	57541812
68	-2597	3604	241	-1746	11232	11	29	137	1837	137636	1836	57541842
113	-2607	3571	252	-1744	11269	16	28	142	1838	137687	1837	57541843
183	-2624	3628	254	-1735	11301	16	28	142	1839	137786	1838	57541846
244	-2614	3609	256	-1730	11318	8	32	140	1840	137837	1839	57541871
310	-2661	3642	249	-1724	11336	8	32	140	1841	137936	1840	57541872
374	-2680	3632	250	-1728	11340	-3	31	131	1842	137987	1841	57541872
411	-2680	3582	251	-1731	11331	-3	31	131	1843	138086	1842	57541873
442	-2687	3570	256	-1725	11316	4	30	136	1844	138137	1843	57541873
519	-2645	3507	248	-1711	11304	4	30	136	1845	138236	1844	57541873
537	-2570	3478	245	-1704	11285	0	36	142	1846	138287	1845	57541873
537	-2559	3471	224	-1699	11268	0	36	142	1847	138386	1846	57541892
536	-2553	3519	207	-1691	11253	-13	29	143	1848	138437	1847	57541893
486	-2519	3557	209	-1678	11230	-13	29	143	1849	138536	1848	57541896
539	-2508	3612	208	-1668	11208	-8	36	136	1850	138587	1849	57541896
559	-2443	3665	209	-1665	11189	-8	36	136	1851	138686	1850	57541898
551	-2409	3698	215	-1665	11163	-12	34	140	1852	138737	1851	57541900
530	-2398	3711	215	-1669	11138	-12	34	140	1853	138836	1852	57541900
526	-2371	3718	221	-1673	11116	-18	30	140	1854	138887	1853	57541903
530	-2328	3677	225	-1671	11087	-18	30	140	1855	138986	1854	57541904
552	-2302	3638	225	-1671	11063	-23	27	145	1856	139037	1855	57541907
534	-2291	3624	221	-1674	11045	-23	27	145	1857	139136	1856	57541940
526	-2293	3589	211	-1672	11024	-23	25	145	1858	139187	1857	57541940
514	-2260	3575	205	-1661	11004	-23	25	145	1859	139286	1858	57541943
508	-2224	3574	206	-1656	10987	-24	34	146	1860	139337	1859	57541944
549	-2206	3605	200	-1645	10974	-24	34	146	1861	139436	1860	57541946
541	-2196	3618	193	-1638	10954	-28	24	140	1862	139487	1861	57541947
509	-2190	3646	188	-1631	10942	-28	24	140	1863	139586	1862	57541947
519	-2190	3652	187	-1625	10922	-34	28	142	1864	139637	1863	57541955
514	-2186	3683	184	-1615	10901	-34	28	142	1865	139736	1864	57541955
532	-2202	3669	179	-1613	10888	-29	23	149	1866	139787	1865	57541957
516	-2201	3672	179	-1614	10866	-29	23	149	1867	139886	1866	57541990
515	-2203	3693	174	-1616	10843	-40	24	146	1868	139937	1867	57541991
490	-2179	3656	172	-1614	10825	-40	24	146	1869	140036	1868	57541994
492	-2203	3657	171	-1609	10805	-42	24	150	1870	140087	1869	57541995
489	-2201	3649	166	-1610	10783	-42	24	150	1871	140186	1870	57541997
477	-2195	3633	171	-1607	10765	-36	24	148	1872	140237	1871	57541998
460	-2213	3640	165	-1603	10747	-36	24	148	1873	140336	1872	57542000
449	-2234	3616	167	-1599	10726	-46	18	144	1874	140387	1873	57542002
424	-2226	3659	166	-1593	10706	-46	18	144	1875	140486	1874	57542003
