Accl X	Accl Y	Accl Z	Gyro X	Gyro Y	Gyro Z	Mag X	Mag Y	Mag Z	RPkt#	Rtime	LPkt#	Ltime
220	1143	3768	-43	-23	26	-127	-15	101	0	0	0	57965635
219	1152	3750	-40	-27	26	-127	-11	101	1	51	1	57965639
218	1154	3738	-43	-26	26	-127	-11	101	2	150	2	57965639
221	1157	3759	-43	-26	27	-134	-12	100	3	201	3	57965641
222	1139	3760	-46	-23	27	-134	-12	100	4	300	4	57965642
223	1151	3754	-40	-25	25	-133	-15	93	5	351	5	57965643
213	1143	3770	-44	-25	27	-133	-15	93	6	450	6	57965646
221	1153	3759	-41	-27	29	-121	-17	105	7	501	7	57965646
226	1148	3747	-44	-29	27	-121	-17	105	8	600	8	57965652
207	1137	3740	-44	-26	28	-127	-17	101	9	650	9	57965685
213	1145	3756	-43	-25	27	-127	-17	101	10	749	10	57965685
216	1144	3764	-42	-25	27	-124	-14	98	11	800	11	57965688
197	1158	3752	-44	-24	25	-124	-14	98	12	899	12	57965689
221	1154	3766	-40	-25	29	-129	-13	99	13	950	13	57965691
242	1155	3756	-44	-25	28	-129	-13	99	14	1049	14	57965693
222	1147	3773	-40	-26	26	-129	-13	93	15	1100	15	57965693
229	1139	3751	-43	-25	26	-129	-13	93	16	1198	16	57965696
225	1149	3754	-41	-26	27	-123	-17	103	17	1249	17	57965696
223	1148	3757	-43	-27	25	-123	-17	103	18	1348	18	57965702
223	1138	3772	-41	-27	27	-133	-15	103	19	1399	19	57965735
219	1139	3767	-41	-24	27	-133	-15	103	20	1498	20	57965737
220	1158	3743	-39	-24	27	-127	-13	97	21	1549	21	57965739
222	1143	3752	-40	-25	27	-127	-13	97	22	1648	22	57965739
219	1160	3735	-40	-28	28	-123	-11	89	23	1699	23	57965741
210	1146	3764	-41	-26	26	-123	-11	89	24	1798	24	57965742
220	1137	3753	-39	-26	27	-131	-13	93	25	1849	25	57965743
218	1158	3761	-42	-25	29	-131	-13	93	26	1948	26	57965746
217	1150	3756	-43	-25	25	-130	-10	90	27	1999	27	57965746
223	1146	3764	-43	-26	27	-130	-10	90	28	2098	28	57965781
227	1149	3740	-41	-24	27	-132	-18	104	29	2149	29	57965781
227	1139	3747	-43	-24	25	-132	-18	104	30	2248	30	57965783
214	1145	3747	-41	-25	25	-126	-14	98	31	2299	31	57965786
203	1151	3743	-41	-23	26	-126	-14	98	32	2398	32	57965788
216	1154	3770	-41	-26	26	-129	-9	95	33	2449	33	57965789
214	1127	3776	-44	-23	28	-129	-9	95	34	2548	34	57965789
228	1142	3778	-43	-26	27	-127	-13	97	35	2599	35	57965791
219	1151	3766	-43	-25	27	-127	-13	97	36	2698	36	57965817
209	1144	3763	-41	-24	25	-127	-17	103	37	2749	37	57965818
218	1160	3746	-38	-26	26	-127	-17	103	38	2848	38	57965821
231	1152	3766	-40	-28	25	-124	-14	100	39	2899	39	57965822
219	1152	3781	-44	-23	25	-124	-14	100	40	2998	40	57965824
217	1139	3755	-41	-25	27	-128	-10	104	41	3049	41	57965825
229	1161	3777	-40	-28	28	-128	-10	104	42	3148	42	57965825
226	1171	3754	-41	-26	25	-130	-14	102	43	3199	43	57965833
238	1138	3754	-41	-26	27	-130	-14	102	44	3298	44	57965833
225	1149	3749	-41	-25	27	-125	-15	99	45	3349	45	57965835
217	1149	3759	-41	-26	23	-125	-15	99	46	3448	46	57965870
225	1148	3756	-41	-27	26	-132	-14	98	47	3499	47	57965873
218	1160	3779	-45	-26	26	-132	-14	98	48	3597	48	57965881
220	1159	3760	-42	-27	23	-123	-7	95	49	3648	49	57965883
206	1146	3735	-43	-25	25	-123	-7	95	50	3747	50	57965883
217	1153	3742	-40	-27	26	-126	-14	96	51	3798	51	57965883
212	1133	3763	-42	-26	25	-126	-14	96	52	3897	52	57965884
220	1153	3755	-42	-25	27	-127	-15	97	53	3948	53	57965884
235	1154	3764	-43	-26	27	-127	-15	97	54	4047	54	57965884
226	1134	3738	-41	-24	25	-128	-10	102	55	4098	55	57965916
218	1138	3752	-39	-25	31	-128	-10	102	56	4196	56	57965916
224	1145	3749	-39	-25	28	-126	-16	98	57	4247	57	57965918
210	1154	3734	-41	-23	26	-126	-16	98	58	4346	58	57965920
216	1159	3741	-41	-25	26	-132	-10	100	59	4397	59	57965920
231	1147	3750	-43	-25	27	-132	-10	100	60	4496	60	57965923
221	1137	3753	-42	-29	25	-128	-14	92	61	4547	61	57965924
204	1141	3759	-43	-28	28	-128	-14	92	62	4646	62	57965926
229	1139	3771	-41	-26	29	-132	-14	92	63	4697	63	57965931
220	1143	3761	-41	-22	25	-132	-14	92	64	4796	64	57965931
223	1152	3757	-39	-27	27	-125	-15	99	65	4847	65	57965942
223	1154	3754	-43	-25	25	-125	-15	99	66	4946	66	57965942
199	1142	3730	-41	-28	27	-131	-15	99	67	4997	67	57965946
216	1150	3745	-43	-26	28	-131	-15	99	68	5096	68	57965978
210	1163	3770	-43	-28	29	-130	-10	102	69	5147	69	57965978
224	1130	3749	-44	-23	29	-130	-10	102	70	5246	70	57965981
227	1155	3747	-43	-28	27	-133	-11	97	71	5297	71	57965982
235	1135	3740	-42	-26	28	-133	-11	97	72	5396	72	57965984
225	1144	3775	-41	-25	23	-132	-14	94	73	5447	73	57965986
224	1149	3756	-43	-23	25	-132	-14	94	74	5546	74	57965986
227	1158	3747	-44	-22	27	-129	-13	91	75	5597	75	57965990
227	1148	3743	-44	-26	27	-129	-13	91	76	5696	76	57965990
220	1138	3757	-41	-22	26	-128	-14	102	77	5747	77	57965994
206	1154	3748	-41	-27	28	-128	-14	102	78	5846	78	57966026
217	1158	3758	-41	-25	25	-125	-15	101	79	5897	79	57966027
220	1147	3744	-42	-26	28	-125	-15	101	80	5996	80	57966030
215	1144	3758	-40	-25	28	-128	-14	98	81	6047	81	57966030
218	1143	3739	-44	-28	27	-128	-14	98	82	6146	82	57966032
213	1144	3745	-43	-26	27	-129	-9	103	83	6197	83	57966034
219	1157	3767	-42	-23	26	-129	-9	103	84	6296	84	57966034
230	1158	3757	-41	-26	25	-129	-13	93	85	6347	85	57966041
224	1141	3769	-41	-23	26	-129	-13	93	86	6446	86	57966042
211	1142	3766	-41	-25	27	-128	-14	100	87	6497	87	57966078
219	1140	3744	-43	-26	29	-128	-14	100	88	6596	88	57966080
212	1136	3774	-44	-27	26	-129	-13	101	89	6647	89	57966081
218	1136	3731	-44	-25	25	-129	-13	101	90	6746	90	57966081
219	1138	3779	-41	-26	26	-125	-17	97	91	6797	91	57966082
211	1156	3753	-41	-26	26	-125	-17	97	92	6896	92	57966084
208	1157	3755	-43	-26	27	-126	-12	102	93	6947	93	57966086
213	1150	3751	-43	-23	26	-126	-12	102	94	7046	94	57966087
228	1130	3749	-43	-24	26	-127	-15	97	95	7097	95	57966089
217	1144	3778	-43	-24	27	-127	-15	97	96	7196	96	57966089
203	1150	3765	-43	-26	28	-131	-15	101	97	7247	97	57966124
219	1154	3748	-44	-25	27	-131	-15	101	98	7346	98	57966127
202	1131	3753	-43	-26	28	-129	-15	103	99	7397	99	57966128
213	1141	3760	-44	-24	30	-129	-15	103	100	7496	100	57966128
230	1152	3749	-43	-27	23	-127	-17	95	101	7547	101	57966129
226	1132	3752	-43	-26	25	-127	-17	95	102	7646	102	57966131
213	1144	3738	-44	-23	25	-127	-13	91	103	7697	103	57966132
226	1159	3749	-44	-27	25	-127	-13	91	104	7796	104	57966134
205	1133	3752	-42	-26	29	-126	-14	100	105	7847	105	57966140
206	1148	3767	-41	-26	28	-126	-14	100	106	7946	106	57966141
206	1122	3751	-40	-26	28	-126	-12	102	107	7997	107	57966175
207	1143	3761	-43	-23	29	-126	-12	102	108	8096	108	57966175
221	1134	3742	-43	-24	28	-128	-14	96	109	8147	109	57966177
208	1148	3772	-43	-26	27	-128	-14	96	110	8246	110	57966179
218	1143	3752	-44	-25	26	-128	-12	92	111	8297	111	57966179
219	1145	3755	-43	-26	29	-128	-12	92	112	8396	112	57966183
207	1144	3731	-42	-27	27	-136	-12	96	113	8446	113	57966188
209	1150	3773	-42	-26	26	-136	-12	96	114	8545	114	57966188
216	1145	3753	-40	-27	27	-133	-13	93	115	8596	115	57966188
229	1140	3744	-43	-24	27	-133	-13	93	116	8695	116	57966189
224	1155	3748	-42	-26	26	-122	-16	102	117	8746	117	57966222
223	1157	3751	-42	-24	29	-122	-16	102	118	8845	118	57966223
218	1154	3756	-40	-24	25	-126	-14	100	119	8896	119	57966226
239	1158	3740	-42	-27	26	-126	-14	100	120	8994	120	57966226
224	1149	3750	-42	-27	27	-127	-9	97	121	9045	121	57966228
231	1151	3723	-42	-25	25	-127	-9	97	122	9144	122	57966230
218	1151	3755	-43	-25	26	-130	-10	96	123	9195	123	57966230
215	1144	3748	-44	-25	27	-130	-10	96	124	9294	124	57966233
223	1145	3732	-42	-27	27	-126	-14	98	125	9345	125	57966234
233	1150	3762	-44	-25	25	-126	-14	98	126	9444	126	57966239
226	1136	3771	-43	-28	28	-132	-18	96	127	9495	127	57966273
226	1145	3756	-42	-24	27	-132	-18	96	128	9594	128	57966280
221	1159	3747	-44	-25	24	-128	-12	98	129	9645	129	57966284
221	1151	3771	-42	-25	28	-128	-12	98	130	9743	130	57966284
221	1149	3761	-43	-25	28	-128	-10	96	131	9794	131	57966285
220	1147	3760	-42	-24	26	-128	-10	96	132	9892	132	57966287
236	1152	3766	-42	-24	29	-131	-15	93	133	9943	133	57966288
227	1144	3755	-43	-24	27	-131	-15	93	134	10041	134	57966288
212	1147	3746	-40	-26	26	-129	-15	95	135	10092	135	57966288
219	1150	3758	-42	-23	26	-129	-15	95	136	10190	136	57966288
217	1157	3745	-41	-24	28	-130	-14	96	137	10241	137	57966320
212	1150	3746	-41	-28	25	-130	-14	96	138	10340	138	57966320
231	1145	3754	-39	-27	27	-125	-13	97	139	10391	139	57966324
216	1140	3763	-40	-24	27	-125	-13	97	140	10490	140	57966324
218	1146	3753	-41	-24	24	-130	-12	98	141	10541	141	57966326
227	1147	3760	-45	-24	28	-130	-12	98	142	10640	142	57966328
218	1147	3765	-43	-25	27	-127	-11	95	143	10691	143	57966328
222	1155	3736	-41	-23	26	-127	-11	95	144	10790	144	57966333
207	1134	3757	-41	-26	28	-127	-15	99	145	10841	145	57966333
225	1150	3766	-44	-25	27	-127	-15	99	146	10939	146	57966339
235	1155	3753	-42	-26	29	-123	-17	99	147	10990	147	57966371
232	1146	3752	-41	-21	27	-123	-17	99	148	11089	148	57966371
208	1146	3766	-42	-27	29	-129	-17	97	149	11139	149	57966375
237	1157	3733	-43	-23	25	-129	-17	97	150	11238	150	57966375
227	1142	3748	-41	-25	25	-128	-12	96	151	11289	151	57966379
209	1160	3745	-43	-24	28	-128	-12	96	152	11388	152	57966379
223	1143	3775	-41	-26	27	-128	-10	96	153	11439	153	57966381
224	1153	3758	-41	-24	28	-128	-10	96	154	11537	154	57966383
233	1150	3771	-42	-26	28	-123	-17	99	155	11589	155	57966383
202	1142	3736	-45	-26	28	-123	-17	99	156	11688	156	57966417
212	1151	3762	-40	-26	27	-122	-18	100	157	11739	157	57966418
214	1137	3744	-43	-25	29	-122	-18	100	158	11838	158	57966420
207	1149	3745	-43	-26	27	-126	-12	96	159	11889	159	57966421
222	1157	3757	-44	-26	27	-126	-12	96	160	11988	160	57966421
219	1149	3764	-41	-25	28	-133	-9	93	161	12039	161	57966427
213	1134	3750	-43	-25	29	-133	-9	93	162	12138	162	57966428
209	1156	3753	-39	-27	24	-131	-13	97	163	12189	163	57966428
202	1137	3759	-43	-27	29	-131	-13	97	164	12288	164	57966457
230	1149	3737	-40	-24	26	-127	-17	99	165	12339	165	57966458
220	1146	3758	-41	-22	26	-127	-17	99	166	12438	166	57966460
231	1142	3740	-39	-26	27	-126	-18	104	167	12489	167	57966461
226	1147	3743	-42	-23	27	-126	-18	104	168	12588	168	57966462
216	1145	3737	-43	-24	24	-127	-13	97	169	12639	169	57966464
216	1156	3766	-44	-24	25	-127	-13	97	170	12738	170	57966465
223	1152	3762	-43	-23	27	-128	-16	100	171	12789	171	57966469
218	1149	3770	-43	-25	25	-128	-16	100	172	12887	172	57966470
209	1155	3748	-42	-26	27	-128	-14	98	173	12938	173	57966473
213	1149	3747	-42	-25	29	-128	-14	98	174	13036	174	57966506
218	1151	3752	-40	-26	24	-130	-16	98	175	13087	175	57966506
232	1154	3762	-41	-27	25	-130	-16	98	176	13186	176	57966509
215	1140	3769	-39	-25	30	-129	-11	99	177	13237	177	57966510
238	1141	3762	-41	-25	28	-129	-11	99	178	13336	178	57966512
214	1147	3758	-42	-25	27	-131	-15	93	179	13387	179	57966513
209	1140	3759	-40	-22	26	-131	-15	93	180	13486	180	57966514
213	1143	3735	-43	-24	24	-127	-15	95	181	13537	181	57966517
235	1138	3753	-42	-23	28	-127	-15	95	182	13636	182	57966522
217	1140	3772	-42	-24	27	-128	-12	98	183	13687	183	57966554
211	1143	3757	-41	-26	23	-128	-12	98	184	13786	184	57966554
220	1154	3766	-42	-25	27	-132	-12	96	185	13837	185	57966556
225	1136	3739	-43	-25	28	-132	-12	96	186	13936	186	57966557
231	1147	3747	-38	-26	28	-127	-7	99	187	13987	187	57966557
204	1135	3757	-41	-26	26	-127	-7	99	188	14086	188	57966561
234	1147	3749	-43	-25	28	-132	-14	96	189	14137	189	57966561
232	1151	3755	-43	-26	26	-132	-14	96	190	14236	190	57966563
211	1144	3759	-43	-25	25	-124	-18	98	191	14287	191	57966566
227	1149	3763	-41	-24	26	-124	-18	98	192	14386	192	57966566
216	1147	3762	-41	-23	27	-125	-15	103	193	14437	193	57966602
223	1156	3747	-39	-26	29	-125	-15	103	194	14536	194	57966603
219	1141	3763	-41	-26	28	-124	-10	94	195	14587	195	57966604
216	1153	3738	-43	-26	26	-124	-10	94	196	14686	196	57966607
216	1168	3758	-41	-23	25	-130	-10	96	197	14737	197	57966608
227	1145	3763	-43	-26	30	-130	-10	96	198	14835	198	57966609
243	1127	3745	-43	-26	27	-127	-11	97	199	14886	199	57966610
261	1122	3747	-42	-22	28	-127	-11	97	200	14985	200	57966612
244	1138	3733	-42	-23	33	-126	-8	96	201	15036	201	57966617
228	1157	3758	-38	-19	33	-126	-8	96	202	15135	202	57966618
235	1137	3764	-40	-22	29	-125	-15	101	203	15186	203	57966628
219	1134	3748	-39	-20	32	-125	-15	101	204	15284	204	57966629
209	1139	3769	-33	-19	34	-129	-17	101	205	15335	205	57966631
202	1152	3757	-41	-19	33	-129	-17	101	206	15433	206	57966664
228	1144	3769	-39	-17	35	-131	-15	103	207	15484	207	57966664
224	1145	3750	-40	-15	37	-131	-15	103	208	15583	208	57966691
243	1155	3738	-39	-14	35	-128	-14	96	209	15634	209	57966694
257	1126	3732	-35	-14	41	-128	-14	96	210	15733	210	57966696
232	1136	3755	-32	-13	46	-128	-14	98	211	15784	211	57966696
241	1154	3768	-34	-11	50	-128	-14	98	212	15883	212	57966696
228	1169	3744	-31	-12	57	-124	-12	96	213	15934	213	57966696
222	1157	3743	-42	-13	63	-124	-12	96	214	16033	214	57966696
214	1159	3782	-40	-14	63	-126	-16	96	215	16084	215	57966711
204	1173	3742	-35	-14	69	-126	-16	96	216	16183	216	57966759
215	1174	3749	-36	-12	72	-128	-22	100	217	16234	217	57966764
218	1160	3773	-39	-9	73	-128	-22	100	218	16333	218	57966781
216	1157	3753	-36	-8	74	-128	-12	98	219	16383	219	57966781
226	1169	3748	-40	-11	79	-128	-12	98	220	16482	220	57966787
230	1141	3763	-41	-10	82	-127	-15	99	221	16533	221	57966788
236	1163	3749	-39	-6	87	-127	-15	99	222	16632	222	57966788
226	1151	3754	-40	-8	88	-129	-11	99	223	16683	223	57966788
256	1137	3745	-42	-8	88	-129	-11	99	224	16782	224	57966788
273	1132	3769	-40	-4	91	-128	-18	104	225	16833	225	57966789
263	1129	3742	-38	-1	101	-128	-18	104	226	16932	226	57966789
288	1129	3755	-35	1	102	-124	-10	100	227	16983	227	57966789
303	1112	3749	-38	6	111	-124	-10	100	228	17082	228	57966789
320	1127	3754	-37	8	119	-125	-15	101	229	17133	229	57966789
318	1135	3763	-32	14	124	-125	-15	101	230	17232	230	57966790
328	1129	3721	-27	18	136	-125	-13	97	231	17283	231	57966790
324	1119	3775	-27	25	151	-125	-13	97	232	17382	232	57966790
319	1133	3764	-26	30	163	-132	-14	94	233	17433	233	57966790
320	1132	3740	-24	42	179	-132	-14	94	234	17532	234	57966791
336	1141	3757	-22	46	204	-128	-18	102	235	17583	235	57966791
343	1141	3763	-19	50	224	-128	-18	102	236	17682	236	57966791
348	1136	3769	-14	58	248	-125	-19	103	237	17733	237	57966791
355	1155	3732	-14	65	276	-125	-19	103	238	17832	238	57966823
357	1153	3719	-6	73	308	-132	-16	98	239	17883	239	57966824
354	1149	3726	-5	80	340	-132	-16	98	240	17982	240	57966827
358	1151	3706	-2	88	377	-130	-12	98	241	18033	241	57966827
365	1173	3695	1	94	416	-130	-12	98	242	18132	242	57966831
384	1174	3717	3	100	458	-126	-14	100	243	18183	243	57966831
393	1172	3728	8	116	502	-126	-14	100	244	18282	244	57966834
427	1206	3743	9	127	548	-129	-13	95	245	18333	245	57966836
434	1186	3754	10	136	591	-129	-13	95	246	18432	246	57966836
432	1210	3748	14	152	640	-128	-16	98	247	18483	247	57966847
457	1213	3760	12	165	690	-128	-16	98	248	18582	248	57966848
450	1232	3723	19	180	740	-128	-16	102	249	18633	249	57966851
439	1251	3751	17	192	792	-128	-16	102	250	18732	250	57966884
428	1269	3706	14	205	841	-123	-17	97	251	18782	251	57966887
429	1264	3697	14	218	889	-123	-17	97	252	18881	252	57966887
428	1294	3704	14	232	938	-125	-15	97	253	18932	253	57966888
442	1301	3714	12	249	987	-125	-15	97	254	19031	254	57966890
452	1287	3716	9	263	1031	-128	-18	96	255	19082	255	57966891
457	1278	3704	7	278	1078	-128	-18	96	256	19181	256	57966891
463	1267	3715	7	290	1126	-126	-18	94	257	19232	257	57966896
470	1279	3723	7	306	1170	-126	-18	94	258	19331	258	57966896
473	1254	3709	9	316	1215	-130	-16	104	259	19382	259	57966900
477	1228	3700	7	333	1260	-130	-16	104	260	19480	260	57966933
471	1233	3711	8	347	1306	-128	-18	100	261	19532	261	57966933
456	1204	3728	9	362	1351	-128	-18	100	262	19631	262	57966937
456	1193	3723	14	373	1402	-127	-21	99	263	19682	263	57966938
461	1161	3723	18	385	1445	-127	-21	99	264	19781	264	57966938
445	1142	3728	26	400	1493	-130	-12	96	265	19832	265	57966940
432	1144	3735	30	411	1543	-130	-12	96	266	19930	266	57966940
439	1129	3748	38	427	1592	-135	-17	99	267	19981	267	57966945
429	1119	3753	44	440	1643	-135	-17	99	268	20080	268	57966946
427	1148	3734	51	451	1693	-127	-19	99	269	20131	269	57966948
440	1150	3734	58	471	1744	-127	-19	99	270	20230	270	57966981
437	1150	3738	63	481	1791	-131	-21	99	271	20281	271	57966982
457	1199	3713	71	498	1847	-131	-21	99	272	20380	272	57966985
476	1214	3713	76	509	1897	-127	-17	97	273	20431	273	57966987
477	1239	3713	79	523	1945	-127	-17	97	274	20530	274	57966989
479	1269	3695	80	538	2001	-122	-26	98	275	20581	275	57966989
483	1266	3712	83	551	2054	-122	-26	98	276	20680	276	57966991
499	1281	3690	82	566	2104	-130	-24	94	277	20731	277	57966997
511	1289	3705	84	583	2159	-130	-24	94	278	20830	278	57966998
516	1322	3725	87	601	2209	-121	-25	103	279	20881	279	57967031
516	1318	3681	84	620	2261	-121	-25	103	280	20980	280	57967032
527	1332	3700	86	640	2315	-131	-21	97	281	21031	281	57967033
517	1339	3689	83	659	2369	-131	-21	97	282	21130	282	57967036
524	1331	3687	82	675	2421	-133	-19	99	283	21180	283	57967037
515	1332	3677	82	692	2474	-133	-19	99	284	21279	284	57967039
474	1327	3691	84	707	2532	-128	-24	98	285	21330	285	57967039
486	1328	3689	82	722	2582	-128	-24	98	286	21429	286	57967041
464	1302	3692	85	740	2639	-126	-26	98	287	21480	287	57967044
463	1305	3714	85	756	2694	-126	-26	98	288	21579	288	57967044
453	1271	3699	88	772	2747	-129	-31	95	289	21630	289	57967096
450	1269	3704	90	788	2805	-129	-31	95	290	21729	290	57967097
450	1254	3715	93	798	2863	-126	-24	102	291	21780	291	57967099
439	1259	3696	97	811	2915	-126	-24	102	292	21879	292	57967100
431	1268	3709	107	824	2973	-127	-29	99	293	21930	293	57967100
432	1245	3707	110	838	3028	-127	-29	99	294	22029	294	57967103
424	1249	3690	116	854	3080	-127	-27	95	295	22080	295	57967104
434	1279	3700	121	870	3137	-127	-27	95	296	22179	296	57967106
434	1251	3715	122	883	3194	-125	-33	99	297	22230	297	57967107
441	1273	3701	131	898	3246	-125	-33	99	298	22329	298	57967107
444	1279	3709	138	909	3295	-125	-25	93	299	22380	299	57967111
449	1298	3729	142	924	3358	-125	-25	93	300	22479	300	57967111
451	1314	3689	148	940	3408	-127	-29	95	301	22530	301	57967113
446	1334	3682	152	953	3463	-127	-29	95	302	22629	302	57967115
447	1351	3714	156	967	3518	-126	-36	106	303	22680	303	57967115
449	1364	3669	158	982	3566	-126	-36	106	304	22779	304	57967151
454	1375	3659	162	995	3616	-124	-32	106	305	22830	305	57967152
444	1389	3673	158	1011	3668	-124	-32	106	306	22929	306	57967156
435	1399	3668	161	1029	3715	-125	-31	95	307	22980	307	57967156
467	1419	3669	161	1042	3760	-125	-31	95	308	23079	308	57967157
460	1412	3700	160	1056	3809	-124	-34	94	309	23130	309	57967159
445	1425	3676	158	1069	3854	-124	-34	94	310	23229	310	57967159
441	1418	3660	163	1087	3894	-126	-30	96	311	23280	311	57967166
441	1412	3652	161	1101	3939	-126	-30	96	312	23379	312	57967166
436	1417	3649	162	1113	3983	-120	-40	106	313	23430	313	57967168
437	1412	3650	160	1127	4024	-120	-40	106	314	23529	314	57967201
410	1391	3680	162	1144	4069	-123	-37	105	315	23580	315	57967201
421	1384	3650	163	1158	4116	-123	-37	105	316	23679	316	57967206
407	1396	3662	169	1168	4157	-124	-40	98	317	23730	317	57967207
410	1391	3676	175	1183	4202	-124	-40	98	318	23829	318	57967207
408	1387	3676	178	1194	4246	-120	-40	96	319	23880	319	57967209
395	1382	3661	180	1206	4289	-120	-40	96	320	23979	320	57967209
364	1388	3672	184	1219	4334	-121	-45	105	321	24030	321	57967214
379	1407	3679	188	1228	4380	-121	-45	105	322	24129	322	57967214
357	1397	3646	193	1239	4418	-117	-41	103	323	24180	323	57967249
372	1405	3644	195	1250	4463	-117	-41	103	324	24279	324	57967250
375	1423	3664	201	1258	4507	-118	-48	104	325	24330	325	57967251
372	1426	3661	203	1273	4549	-118	-48	104	326	24429	326	57967252
366	1430	3680	206	1281	4592	-116	-42	100	327	24480	327	57967253
356	1451	3656	208	1293	4633	-116	-42	100	328	24579	328	57967258
366	1471	3648	210	1304	4669	-118	-46	104	329	24630	329	57967259
368	1481	3639	211	1318	4711	-118	-46	104	330	24729	330	57967260
362	1496	3630	212	1324	4751	-119	-45	105	331	24780	331	57967264
376	1512	3646	214	1339	4780	-119	-45	105	332	24878	332	57967264
359	1505	3666	212	1350	4818	-115	-45	101	333	24929	333	57967299
352	1512	3659	213	1360	4855	-115	-45	101	334	25027	334	57967299
345	1530	3668	212	1369	4889	-115	-47	109	335	25079	335	57967301
324	1534	3680	209	1378	4916	-115	-47	109	336	25178	336	57967303
314	1532	3634	204	1388	4947	-118	-50	102	337	25229	337	57967303
309	1545	3649	204	1396	4973	-118	-50	102	338	25328	338	57967306
294	1527	3642	205	1407	4995	-113	-53	101	339	25379	339	57967307
267	1533	3619	202	1411	5016	-113	-53	101	340	25478	340	57967309
259	1523	3646	202	1417	5036	-113	-51	99	341	25529	341	57967314
257	1510	3631	202	1423	5053	-113	-51	99	342	25628	342	57967314
238	1505	3667	200	1427	5069	-106	-50	110	343	25679	343	57967349
210	1522	3649	198	1432	5083	-106	-50	110	344	25778	344	57967349
200	1498	3660	199	1436	5088	-107	-61	107	345	25829	345	57967351
194	1471	3658	196	1438	5096	-107	-61	107	346	25927	346	57967352
164	1481	3649	195	1441	5100	-113	-49	107	347	25979	347	57967353
183	1502	3668	193	1441	5098	-113	-49	107	348	26078	348	57967356
156	1493	3684	193	1443	5102	-106	-54	108	349	26129	349	57967356
159	1489	3673	191	1442	5094	-106	-54	108	350	26228	350	57967359
147	1480	3652	191	1441	5084	-104	-58	102	351	26279	351	57967360
145	1441	3621	188	1438	5075	-104	-58	102	352	26378	352	57967360
167	1395	3636	183	1434	5063	-103	-61	109	353	26428	353	57967396
150	1408	3655	189	1429	5050	-103	-61	109	354	26527	354	57967396
159	1404	3668	196	1428	5040	-109	-61	107	355	26578	355	57967400
148	1389	3680	196	1428	5031	-109	-61	107	356	26676	356	57967400
163	1349	3705	194	1429	5015	-107	-59	103	357	26727	357	57967402
138	1358	3697	202	1430	5007	-107	-59	103	358	26826	358	57967404
159	1369	3700	207	1425	4995	-106	-58	106	359	26877	359	57967404
165	1360	3676	212	1428	4983	-106	-58	106	360	26976	360	57967407
165	1387	3676	215	1421	4973	-96	-66	110	361	27027	361	57967408
143	1392	3687	220	1420	4962	-96	-66	110	362	27126	362	57967414
144	1415	3650	220	1414	4951	-101	-63	107	363	27177	363	57967446
135	1405	3677	223	1414	4946	-101	-63	107	364	27276	364	57967446
117	1438	3666	227	1409	4938	-95	-67	109	365	27327	365	57967449
126	1454	3692	223	1405	4927	-95	-67	109	366	27426	366	57967450
125	1458	3670	222	1399	4919	-93	-59	103	367	27477	367	57967454
126	1458	3682	218	1397	4912	-93	-59	103	368	27576	368	57967459
125	1472	3683	220	1396	4901	-97	-63	109	369	27627	369	57967459
144	1496	3666	217	1390	4896	-97	-63	109	370	27726	370	57967460
131	1495	3671	213	1387	4886	-91	-67	115	371	27777	371	57967460
129	1489	3660	206	1388	4876	-91	-67	115	372	27876	372	57967464
127	1496	3663	207	1381	4866	-92	-68	110	373	27927	373	57967496
115	1487	3655	202	1381	4860	-92	-68	110	374	28026	374	57967496
150	1473	3681	198	1381	4850	-92	-62	114	375	28077	375	57967500
149	1466	3675	192	1375	4839	-92	-62	114	376	28176	376	57967500
160	1468	3682	190	1375	4830	-87	-61	117	377	28227	377	57967502
155	1431	3676	189	1373	4820	-87	-61	117	378	28326	378	57967504
164	1425	3690	187	1373	4809	-93	-63	105	379	28377	379	57967504
150	1409	3686	184	1376	4799	-93	-63	105	380	28476	380	57967507
169	1404	3679	183	1370	4788	-91	-67	113	381	28527	381	57967508
184	1383	3681	184	1371	4777	-91	-67	113	382	28626	382	57967510
188	1385	3675	186	1371	4767	-94	-68	116	383	28677	383	57967543
156	1388	3670	189	1369	4753	-94	-68	116	384	28776	384	57967544
177	1377	3689	191	1368	4740	-83	-73	115	385	28827	385	57967548
174	1369	3676	191	1367	4734	-83	-73	115	386	28926	386	57967549
159	1356	3689	192	1365	4723	-80	-62	108	387	28977	387	57967550
158	1363	3699	197	1365	4710	-80	-62	108	388	29076	388	57967551
149	1389	3670	195	1362	4700	-86	-70	120	389	29127	389	57967553
142	1389	3688	196	1358	4691	-86	-70	120	390	29226	390	57967557
147	1396	3662	200	1353	4681	-80	-74	120	391	29277	391	57967558
122	1391	3658	198	1352	4677	-80	-74	120	392	29376	392	57967592
109	1407	3704	199	1348	4671	-78	-68	124	393	29427	393	57967602
102	1421	3655	199	1346	4661	-78	-68	124	394	29526	394	57967603
108	1415	3702	196	1338	4657	-80	-68	122	395	29577	395	57967604
96	1404	3701	194	1331	4646	-80	-68	122	396	29676	396	57967604
113	1416	3679	191	1327	4637	-81	-67	117	397	29727	397	57967604
90	1418	3682	192	1327	4631	-81	-67	117	398	29826	398	57967608
91	1418	3700	193	1321	4624	-72	-64	112	399	29877	399	57967608
104	1421	3675	188	1318	4614	-72	-64	112	400	29976	400	57967608
100	1417	3708	191	1311	4610	-78	-70	120	401	30027	401	57967609
106	1401	3711	188	1308	4601	-78	-70	120	402	30126	402	57967618
107	1403	3697	184	1306	4593	-75	-69	127	403	30177	403	57967618
111	1403	3696	180	1301	4587	-75	-69	127	404	30276	404	57967621
136	1384	3697	181	1295	4579	-67	-69	117	405	30327	405	57967655
127	1384	3691	180	1293	4571	-67	-69	117	406	30426	406	57967655
131	1368	3682	184	1291	4561	-70	-66	128	407	30477	407	57967659
131	1365	3690	182	1290	4552	-70	-66	128	408	30576	408	57967659
128	1345	3691	184	1285	4543	-72	-64	120	409	30627	409	57967661
155	1336	3681	183	1284	4531	-72	-64	120	410	30726	410	57967662
144	1361	3707	184	1280	4522	-68	-68	122	411	30777	411	57967663
157	1355	3676	186	1277	4514	-68	-68	122	412	30876	412	57967666
148	1354	3710	187	1276	4508	-62	-72	128	413	30927	413	57967667
141	1356	3698	190	1275	4500	-62	-72	128	414	31026	414	57967702
144	1335	3700	191	1275	4486	-65	-69	127	415	31077	415	57967703
130	1340	3716	191	1270	4476	-65	-69	127	416	31176	416	57967707
137	1349	3705	192	1265	4471	-64	-68	126	417	31227	417	57967707
140	1364	3702	191	1261	4458	-64	-68	126	418	31326	418	57967707
125	1347	3697	193	1260	4449	-66	-70	124	419	31377	419	57967710
143	1358	3686	191	1257	4441	-66	-70	124	420	31476	420	57967710
130	1370	3706	192	1251	4432	-63	-65	123	421	31527	421	57967712
125	1364	3684	191	1251	4423	-63	-65	123	422	31626	422	57967741
128	1365	3693	190	1242	4414	-60	-72	124	423	31677	423	57967743
140	1373	3684	187	1242	4405	-60	-72	124	424	31776	424	57967747
115	1367	3710	187	1236	4392	-61	-71	127	425	31827	425	57967750
107	1379	3685	186	1233	4388	-61	-71	127	426	31926	426	57967753
126	1375	3676	185	1230	4383	-64	-68	128	427	31977	427	57967756
130	1359	3697	183	1227	4371	-64	-68	128	428	32076	428	57967760
122	1370	3713	183	1220	4362	-59	-65	125	429	32127	429	57967760
121	1360	3698	180	1218	4353	-59	-65	125	430	32226	430	57967761
137	1367	3680	181	1217	4342	-55	-69	127	431	32277	431	57967761
144	1345	3710	179	1216	4332	-55	-69	127	432	32376	432	57967789
132	1354	3696	178	1212	4322	-63	-67	133	433	32427	433	57967791
117	1343	3682	178	1209	4313	-63	-67	133	434	32526	434	57967794
131	1337	3718	177	1203	4304	-54	-66	136	435	32577	435	57967794
140	1316	3685	177	1201	4296	-54	-66	136	436	32676	436	57967797
133	1328	3705	175	1199	4281	-53	-69	133	437	32727	437	57967797
128	1339	3687	175	1197	4273	-53	-69	133	438	32826	438	57967800
131	1315	3697	176	1194	4264	-46	-68	130	439	32877	439	57967803
148	1325	3703	177	1191	4250	-46	-68	130	440	32976	440	57967803
145	1321	3727	178	1191	4242	-50	-66	140	441	33027	441	57967836
144	1316	3712	178	1187	4234	-50	-66	140	442	33126	442	57967836
143	1311	3691	179	1185	4221	-46	-64	134	443	33177	443	57967839
139	1333	3708	180	1183	4211	-46	-64	134	444	33276	444	57967841
131	1325	3707	180	1177	4203	-53	-61	131	445	33327	445	57967841
135	1314	3717	178	1175	4192	-53	-61	131	446	33426	446	57967845
155	1336	3694	178	1171	4181	-50	-60	132	447	33477	447	57967846
147	1337	3729	178	1172	4172	-50	-60	132	448	33576	448	57967848
127	1330	3714	176	1165	4162	-50	-62	138	449	33627	449	57967849
118	1318	3703	173	1165	4150	-50	-62	138	450	33726	450	57967851
144	1333	3687	176	1159	4142	-45	-71	141	451	33777	451	57967884
149	1319	3685	175	1159	4128	-45	-71	141	452	33876	452	57967888
126	1329	3693	177	1152	4119	-44	-62	138	453	33927	453	57967891
130	1349	3688	174	1151	4112	-44	-62	138	454	34026	454	57967891
129	1338	3707	172	1151	4101	-49	-61	137	455	34077	455	57967892
149	1342	3718	166	1146	4091	-49	-61	137	456	34176	456	57967892
136	1330	3696	168	1142	4083	-49	-57	129	457	34227	457	57967893
139	1327	3706	170	1138	4071	-49	-57	129	458	34326	458	57967897
135	1311	3710	171	1135	4061	-43	-63	133	459	34377	459	57967897
124	1324	3707	166	1130	4053	-43	-63	133	460	34476	460	57967930
146	1317	3723	168	1130	4042	-44	-60	140	461	34527	461	57967930
137	1298	3720	164	1127	4029	-44	-60	140	462	34626	462	57967934
126	1304	3706	165	1124	4022	-41	-63	143	463	34677	463	57967940
141	1292	3718	165	1121	4012	-41	-63	143	464	34776	464	57967941
145	1299	3728	161	1117	4001	-45	-55	137	465	34827	465	57967941
136	1287	3695	165	1114	3993	-45	-55	137	466	34926	466	57967942
124	1296	3724	163	1112	3984	-40	-56	134	467	34977	467	57967942
131	1297	3715	162	1110	3967	-40	-56	134	468	35076	468	57967947
153	1307	3706	166	1106	3961	-36	-64	138	469	35127	469	57967947
132	1281	3726	164	1105	3953	-36	-64	138	470	35226	470	57967980
151	1289	3702	164	1100	3940	-43	-57	143	471	35277	471	57967980
136	1302	3714	160	1097	3931	-43	-57	143	472	35376	472	57967983
140	1290	3707	165	1094	3922	-37	-59	141	473	35427	473	57967984
129	1302	3704	163	1090	3909	-37	-59	141	474	35526	474	57967984
146	1294	3720	164	1088	3899	-40	-54	142	475	35577	475	57967987
123	1307	3708	161	1087	3890	-40	-54	142	476	35676	476	57967987
153	1294	3698	162	1082	3877	-38	-58	130	477	35727	477	57967991
143	1311	3701	159	1082	3870	-38	-58	130	478	35825	478	57967991
136	1304	3699	161	1079	3861	-35	-49	141	479	35877	479	57967996
139	1303	3708	160	1076	3849	-35	-49	141	480	35976	480	57968027
137	1304	3701	160	1075	3839	-37	-55	141	481	36027	481	57968028
137	1290	3711	158	1070	3829	-37	-55	141	482	36126	482	57968031
135	1295	3707	157	1063	3818	-35	-53	135	483	36177	483	57968031
139	1293	3717	154	1062	3809	-35	-53	135	484	36276	484	57968034
131	1281	3715	155	1057	3800	-36	-52	144	485	36327	485	57968035
121	1287	3739	152	1056	3787	-36	-52	144	486	36426	486	57968035
142	1285	3741	151	1054	3778	-32	-46	144	487	36477	487	57968040
136	1280	3697	152	1049	3770	-32	-46	144	488	36576	488	57968040
134	1290	3716	151	1046	3756	-32	-54	144	489	36627	489	57968043
125	1270	3721	150	1046	3748	-32	-54	144	490	36726	490	57968077
139	1279	3745	153	1040	3741	-30	-50	144	491	36777	491	57968080
132	1270	3720	153	1037	3730	-30	-50	144	492	36876	492	57968081
129	1272	3723	151	1033	3715	-28	-52	144	493	36927	493	57968081
124	1270	3704	149	1030	3711	-28	-52	144	494	37025	494	57968083
119	1269	3704	151	1026	3700	-28	-54	140	495	37076	495	57968084
140	1260	3728	151	1025	3685	-28	-54	140	496	37175	496	57968086
128	1275	3714	150	1022	3679	-29	-49	141	497	37226	497	57968091
137	1270	3728	149	1020	3668	-29	-49	141	498	37325	498	57968091
145	1270	3713	150	1018	3656	-21	-43	147	499	37376	499	57968093
136	1275	3712	149	1015	3649	-21	-43	147	500	37475	500	57968107
135	1264	3706	149	1010	3640	-28	-48	142	501	37526	501	57968109
132	1266	3709	148	1010	3627	-28	-48	142	502	37625	502	57968138
129	1266	3725	149	1005	3618	-28	-40	148	503	37676	503	57968139
145	1267	3721	148	1000	3608	-28	-40	148	504	37774	504	57968142
140	1274	3740	146	998	3595	-27	-43	149	505	37825	505	57968142
136	1271	3748	143	998	3586	-27	-43	149	506	37924	506	57968147
136	1279	3720	146	994	3579	-32	-46	144	507	37975	507	57968147
150	1273	3703	147	991	3566	-32	-46	144	508	38074	508	57968148
142	1257	3738	145	988	3559	-30	-40	142	509	38125	509	57968149
137	1254	3742	142	986	3549	-30	-40	142	510	38224	510	57968150
138	1262	3718	144	982	3536	-21	-41	145	511	38275	511	57968153
141	1253	3725	142	981	3526	-21	-41	145	512	38374	512	57968188
135	1263	3743	143	976	3519	-28	-38	150	513	38425	513	57968188
127	1269	3748	142	971	3505	-28	-38	150	514	38524	514	57968191
139	1285	3726	142	970	3498	-26	-36	150	515	38575	515	57968192
135	1256	3755	141	968	3487	-26	-36	150	516	38674	516	57968194
137	1268	3754	140	963	3476	-26	-38	146	517	38725	517	57968195
145	1244	3730	139	960	3469	-26	-38	146	518	38824	518	57968196
150	1262	3725	139	957	3457	-27	-35	141	519	38875	519	57968203
140	1257	3727	138	954	3446	-27	-35	141	520	38974	520	57968203
127	1258	3727	138	950	3435	-24	-46	144	521	39025	521	57968205
153	1249	3719	138	947	3425	-24	-46	144	522	39124	522	57968214
135	1249	3731	138	946	3418	-22	-36	144	523	39175	523	57968217
142	1249	3732	133	944	3405	-22	-36	144	524	39274	524	57968249
142	1239	3740	134	939	3399	-19	-35	149	525	39325	525	57968249
141	1246	3724	134	938	3386	-19	-35	149	526	39424	526	57968251
155	1253	3724	135	937	3376	-19	-33	147	527	39475	527	57968252
154	1252	3724	132	934	3369	-19	-33	147	528	39573	528	57968252
152	1257	3734	133	931	3357	-25	-33	143	529	39624	529	57968256
143	1241	3725	132	929	3346	-25	-33	143	530	39723	530	57968257
154	1241	3727	130	924	3338	-24	-36	144	531	39774	531	57968259
142	1257	3728	131	923	3327	-24	-36	144	532	39873	532	57968260
145	1253	3716	130	920	3318	-21	-35	145	533	39924	533	57968260
152	1256	3713	131	916	3301	-21	-35	145	534	40023	534	57968297
132	1248	3716	130	912	3302	-21	-33	153	535	40074	535	57968298
150	1244	3745	129	911	3273	-21	-33	153	536	40173	536	57968300
159	1232	3749	129	907	3265	-24	-34	144	537	40224	537	57968301
147	1230	3719	129	904	3255	-24	-34	144	538	40323	538	57968302
141	1229	3720	129	903	3247	-23	-33	143	539	40374	539	57968304
138	1237	3742	129	897	3253	-23	-33	143	540	40473	540	57968304
159	1238	3730	126	897	3251	-25	-23	145	541	40524	541	57968308
143	1239	3705	126	893	3248	-25	-23	145	542	40623	542	57968309
150	1227	3733	126	892	3227	-23	-29	151	543	40674	543	57968312
142	1241	3745	126	889	3219	-23	-29	151	544	40772	544	57968346
161	1252	3716	126	886	3203	-21	-27	149	545	40823	545	57968347
125	1235	3751	125	885	3201	-21	-27	149	546	40922	546	57968349
141	1244	3736	125	879	3190	-17	-27	147	547	40973	547	57968349
149	1222	3738	121	879	3176	-17	-27	147	548	41072	548	57968351
149	1237	3739	123	877	3169	-19	-25	145	549	41123	549	57968378
146	1236	3749	121	875	3161	-19	-25	145	550	41222	550	57968378
153	1236	3756	121	868	3150	-21	-23	151	551	41273	551	57968381
153	1234	3737	120	866	3141	-21	-23	151	552	41371	552	57968382
138	1234	3735	121	865	3132	-19	-25	147	553	41422	553	57968384
147	1243	3719	119	861	3122	-19	-25	147	554	41521	554	57968385
142	1229	3731	120	858	3111	-22	-22	142	555	41572	555	57968385
146	1230	3747	119	858	3106	-22	-22	142	556	41671	556	57968388
152	1225	3731	120	855	3093	-20	-18	144	557	41722	557	57968389
147	1218	3753	117	854	3084	-20	-18	144	558	41821	558	57968391
144	1238	3745	116	845	3076	-18	-28	146	559	41872	559	57968399
153	1219	3719	116	845	3064	-18	-28	146	560	41971	560	57968400
152	1229	3732	117	844	3055	-20	-20	150	561	42022	561	57968408
143	1234	3743	116	838	3047	-20	-20	150	562	42121	562	57968409
145	1217	3719	117	838	3034	-20	-22	150	563	42172	563	57968447
151	1221	3740	115	838	3028	-20	-22	150	564	42271	564	57968447
145	1225	3753	113	835	3018	-20	-18	150	565	42322	565	57968447
127	1212	3721	113	831	3010	-20	-18	150	566	42421	566	57968449
143	1224	3741	116	829	3001	-23	-13	141	567	42472	567	57968450
159	1221	3725	112	827	2994	-23	-13	141	568	42571	568	57968454
155	1217	3752	113	822	2983	-26	-16	148	569	42622	569	57968454
165	1207	3718	110	820	2970	-26	-16	148	570	42721	570	57968456
166	1215	3715	112	817	2967	-20	-18	150	571	42772	571	57968457
151	1223	3734	113	813	2955	-20	-18	150	572	42871	572	57968457
143	1218	3727	113	811	2942	-21	-19	147	573	42922	573	57968492
156	1219	3762	109	812	2935	-21	-19	147	574	43021	574	57968493
161	1218	3732	111	805	2926	-19	-23	147	575	43072	575	57968496
172	1219	3744	109	804	2913	-19	-23	147	576	43171	576	57968497
144	1226	3717	110	799	2908	-22	-12	142	577	43222	577	57968498
148	1219	3720	108	800	2899	-22	-12	142	578	43321	578	57968499
148	1221	3738	109	797	2888	-21	-17	149	579	43372	579	57968500
141	1212	3750	106	793	2881	-21	-17	149	580	43471	580	57968502
150	1208	3726	109	791	2871	-16	-14	144	581	43522	581	57968507
148	1209	3745	105	787	2860	-16	-14	144	582	43621	582	57968508
148	1219	3739	105	783	2852	-19	-11	151	583	43672	583	57968542
158	1223	3733	103	781	2843	-19	-11	151	584	43771	584	57968549
148	1206	3773	104	777	2833	-14	-14	150	585	43822	585	57968549
144	1188	3743	101	781	2823	-14	-14	150	586	43921	586	57968551
160	1206	3735	104	777	2816	-25	-5	147	587	43972	587	57968552
149	1204	3744	104	771	2804	-25	-5	147	588	44071	588	57968552
137	1217	3745	104	768	2798	-25	-13	151	589	44122	589	57968553
155	1197	3764	100	768	2788	-25	-13	151	590	44221	590	57968554
133	1210	3738	100	764	2776	-20	-6	146	591	44272	591	57968558
144	1208	3723	103	761	2768	-20	-6	146	592	44371	592	57968558
144	1205	3738	104	757	2762	-18	-18	150	593	44422	593	57968592
145	1202	3736	102	755	2752	-18	-18	150	594	44521	594	57968593
144	1197	3746	104	752	2742	-22	-4	152	595	44572	595	57968596
154	1195	3729	98	750	2733	-22	-4	152	596	44671	596	57968596
150	1197	3745	97	746	2722	-29	-3	139	597	44722	597	57968599
157	1204	3738	97	746	2713	-29	-3	139	598	44821	598	57968600
151	1203	3747	99	740	2707	-29	-7	139	599	44872	599	57968601
156	1197	3743	101	738	2696	-29	-7	139	600	44971	600	57968603
153	1201	3741	99	736	2686	-22	-4	144	601	45022	601	57968604
151	1205	3750	97	735	2680	-22	-4	144	602	45121	602	57968607
133	1201	3729	99	731	2667	-19	-5	149	603	45172	603	57968640
159	1191	3727	98	730	2660	-19	-5	149	604	45271	604	57968640
153	1191	3746	96	727	2651	-26	-4	144	605	45322	605	57968643
152	1186	3746	92	725	2643	-26	-4	144	606	45420	606	57968644
153	1204	3733	95	719	2631	-22	0	144	607	45472	607	57968646
141	1199	3755	93	720	2623	-22	0	144	608	45571	608	57968648
154	1187	3734	95	717	2612	-33	3	141	609	45622	609	57968648
156	1193	3747	96	714	2605	-33	3	141	610	45721	610	57968651
151	1195	3726	92	711	2598	-26	-6	148	611	45772	611	57968651
150	1187	3741	91	711	2590	-26	-6	148	612	45871	612	57968657
163	1187	3744	92	707	2576	-21	3	145	613	45922	613	57968690
145	1189	3743	90	704	2569	-21	3	145	614	46021	614	57968691
160	1189	3753	93	699	2562	-23	-5	149	615	46072	615	57968694
158	1198	3731	93	698	2554	-23	-5	149	616	46171	616	57968694
177	1201	3758	91	697	2545	-23	5	143	617	46222	617	57968696
160	1177	3740	86	698	2536	-23	5	143	618	46321	618	57968697
152	1189	3743	89	690	2524	-23	1	143	619	46372	619	57968697
157	1204	3756	89	685	2519	-23	1	143	620	46471	620	57968701
141	1180	3758	88	685	2510	-25	-1	145	621	46522	621	57968701
131	1201	3747	89	684	2498	-25	-1	145	622	46621	622	57968703
160	1180	3763	88	682	2490	-24	0	146	623	46672	623	57968737
160	1186	3758	85	678	2482	-24	0	146	624	46771	624	57968738
149	1191	3751	86	674	2471	-28	0	146	625	46822	625	57968740
164	1180	3741	83	674	2463	-28	0	146	626	46921	626	57968740
144	1182	3750	86	671	2456	-24	2	140	627	46972	627	57968744
155	1194	3721	81	670	2446	-24	2	140	628	47071	628	57968744
147	1174	3751	85	668	2435	-29	7	139	629	47122	629	57968747
145	1174	3744	85	666	2433	-29	7	139	630	47221	630	57968751
156	1190	3766	84	661	2421	-20	0	148	631	47272	631	57968752
157	1195	3735	84	659	2411	-20	0	148	632	47371	632	57968786
164	1174	3746	81	656	2406	-23	-1	149	633	47422	633	57968787
161	1178	3744	83	655	2395	-23	-1	149	634	47521	634	57968789
175	1186	3754	80	653	2389	-29	9	145	635	47572	635	57968790
176	1193	3742	81	648	2382	-29	9	145	636	47671	636	57968790
150	1185	3756	81	644	2373	-26	8	146	637	47722	637	57968793
146	1166	3732	81	646	2362	-26	8	146	638	47821	638	57968794
163	1167	3740	81	643	2354	-29	7	139	639	47872	639	57968796
163	1187	3743	79	639	2347	-29	7	139	640	47971	640	57968801
154	1170	3753	81	637	2334	-31	7	139	641	48022	641	57968801
150	1180	3765	78	637	2330	-31	7	139	642	48121	642	57968836
148	1161	3764	79	633	2321	-26	8	152	643	48172	643	57968837
168	1171	3746	77	633	2312	-26	8	152	644	48271	644	57968838
169	1178	3760	77	627	2305	-29	1	141	645	48322	645	57968840
173	1171	3722	77	628	2297	-29	1	141	646	48421	646	57968840
173	1178	3751	76	624	2290	-33	15	143	647	48472	647	57968843
166	1175	3738	74	622	2280	-33	15	143	648	48571	648	57968844
141	1174	3752	77	619	2274	-29	15	147	649	48622	649	57968846
150	1190	3750	79	617	2263	-29	15	147	650	48721	650	57968849
163	1157	3739	75	612	2256	-31	7	145	651	48772	651	57968849
151	1182	3732	77	610	2247	-31	7	145	652	48871	652	57968884
168	1165	3757	76	610	2238	-29	3	147	653	48922	653	57968890
157	1188	3739	70	609	2230	-29	3	147	654	49021	654	57968890
160	1170	3746	72	608	2224	-34	10	144	655	49072	655	57968891
173	1184	3761	72	605	2216	-34	10	144	656	49171	656	57968892
164	1172	3751	73	600	2209	-38	8	140	657	49222	657	57968892
166	1169	3753	73	598	2202	-38	8	140	658	49321	658	57968893
161	1163	3758	72	596	2190	-34	18	138	659	49372	659	57968897
166	1175	3733	70	599	2183	-34	18	138	660	49471	660	57968897
155	1172	3746	73	591	2176	-34	12	140	661	49522	661	57968900
156	1157	3743	70	591	2167	-34	12	140	662	49621	662	57968933
156	1152	3756	70	587	2160	-37	11	145	663	49672	663	57968934
172	1146	3686	76	586	2152	-37	11	145	664	49770	664	57968937
178	1430	3831	69	583	2140	-33	15	147	665	49821	665	57968938
68	1153	3617	58	569	2155	-33	15	147	666	49920	666	57968939
241	917	3655	31	587	2145	-34	20	140	667	49971	667	57968940
236	1443	4061	63	587	2122	-34	20	140	668	50070	668	57968941
102	1295	3450	122	569	2129	-33	19	137	669	50120	669	57968949
367	795	3708	-28	581	2124	-33	19	137	670	50219	670	57968950
231	1555	3575	197	585	2090	-34	14	146	672	50237	671	57968981
345	1180	3674	23	576	2104	-35	15	141	673	50288	672	57968981
163	739	3857	-44	565	2125	-35	15	141	674	50386	673	57968985
301	1364	3682	144	595	2087	-42	18	144	675	50438	674	57968985
269	1381	3728	75	587	2108	-42	18	144	676	50536	675	57968988
307	1027	3786	1	589	2110	-35	23	137	677	50588	676	57968989
399	1146	3669	76	602	2100	-35	23	137	678	50687	677	57968989
304	1285	3763	63	605	2118	-45	17	141	679	50738	678	57969018
395	1314	3649	74	629	2123	-45	17	141	680	50837	679	57969018
438	1140	3677	34	632	2145	-35	17	143	681	50888	680	57969020
427	1171	3797	32	648	2155	-35	17	143	682	50987	681	57969021
466	1387	3697	83	661	2166	-46	20	140	683	51038	682	57969022
379	1267	3730	30	668	2205	-46	20	140	684	51137	683	57969027
457	1154	3823	15	689	2234	-39	17	139	685	51188	684	57969028
439	1385	3720	69	705	2255	-39	17	139	686	51287	685	57969028
393	1391	3701	38	717	2286	-36	18	134	687	51338	686	57969030
453	1227	3715	4	734	2323	-36	18	134	688	51436	687	57969030
413	1263	3724	24	752	2365	-38	16	142	689	51487	688	57969067
435	1382	3704	40	777	2394	-38	16	142	690	51586	689	57969067
422	1367	3686	19	785	2440	-40	20	142	691	51637	690	57969072
379	1225	3699	-8	794	2486	-40	20	142	692	51736	691	57969073
360	1259	3721	15	804	2525	-35	25	131	693	51787	692	57969076
303	1317	3678	21	812	2576	-35	25	131	694	51886	693	57969078
313	1252	3712	10	820	2627	-40	26	132	695	51937	694	57969078
247	1182	3724	13	818	2673	-40	26	132	696	52036	695	57969079
202	1191	3729	23	816	2722	-39	21	141	697	52087	696	57969080
191	1196	3695	41	816	2771	-39	21	141	698	52186	697	57969083
163	1146	3710	42	815	2822	-42	26	142	699	52237	698	57969117
151	1091	3762	52	815	2868	-42	26	142	700	52336	699	57969118
151	1112	3738	75	819	2915	-41	23	139	701	52387	700	57969121
147	1095	3716	80	819	2955	-41	23	139	702	52486	701	57969121
182	1075	3718	91	823	3003	-47	25	135	703	52537	702	57969123
204	1092	3732	104	828	3052	-47	25	135	704	52636	703	57969125
277	1110	3728	117	835	3094	-47	25	135	705	52687	704	57969125
327	1120	3741	124	841	3137	-47	25	135	706	52786	705	57969129
349	1130	3743	130	846	3191	-46	22	138	707	52837	706	57969129
405	1159	3734	136	860	3225	-46	22	138	708	52936	707	57969131
425	1219	3713	153	874	3268	-44	22	142	709	52987	708	57969167
461	1260	3714	154	885	3324	-44	22	142	710	53086	709	57969167
499	1258	3720	155	900	3375	-45	25	137	711	53137	710	57969168
529	1296	3692	162	918	3421	-45	25	137	712	53236	711	57969168
528	1340	3693	168	939	3470	-45	29	133	713	53287	712	57969172
534	1342	3670	166	961	3519	-45	29	133	714	53386	713	57969172
541	1339	3708	163	978	3567	-44	28	126	715	53437	714	57969175
519	1402	3672	161	998	3616	-44	28	126	716	53536	715	57969177
489	1422	3689	160	1018	3664	-51	25	137	717	53587	716	57969178
474	1434	3690	153	1037	3718	-51	25	137	718	53686	717	57969214
458	1452	3672	156	1057	3771	-44	26	138	719	53737	718	57969214
407	1463	3676	150	1076	3818	-44	26	138	720	53836	719	57969217
386	1453	3657	148	1091	3863	-50	24	136	721	53887	720	57969217
370	1436	3640	143	1110	3912	-50	24	136	722	53986	721	57969218
344	1411	3671	142	1125	3964	-51	29	129	723	54037	722	57969221
347	1405	3680	142	1139	4009	-51	29	129	724	54136	723	57969221
321	1384	3687	140	1147	4058	-54	34	134	725	54187	724	57969223
315	1371	3700	140	1158	4105	-54	34	134	726	54286	725	57969229
331	1335	3712	147	1169	4151	-54	26	128	727	54337	726	57969229
336	1317	3697	149	1179	4202	-54	26	128	728	54435	727	57969240
342	1285	3690	156	1191	4249	-58	26	132	729	54487	728	57969240
345	1308	3690	161	1203	4290	-58	26	132	730	54586	729	57969250
365	1303	3664	172	1214	4337	-59	33	133	731	54637	730	57969250
380	1305	3639	176	1226	4384	-59	33	133	732	54735	731	57969253
392	1293	3656	184	1238	4431	-63	25	135	733	54786	732	57969290
386	1319	3653	192	1257	4476	-63	25	135	734	54884	733	57969301
395	1341	3637	201	1267	4528	-58	28	128	735	54935	734	57969306
377	1354	3647	209	1280	4576	-58	28	128	736	55033	735	57969306
386	1356	3675	216	1295	4624	-63	35	125	737	55084	736	57969306
352	1369	3663	221	1309	4668	-63	35	125	738	55183	737	57969307
375	1422	3684	228	1319	4716	-63	33	131	739	55234	738	57969307
348	1451	3654	229	1331	4762	-63	33	131	740	55333	739	57969307
331	1476	3656	231	1344	4809	-64	34	128	741	55384	740	57969307
332	1480	3673	230	1353	4856	-64	34	128	742	55483	741	57969308
296	1559	3653	238	1362	4902	-68	34	128	743	55534	742	57969337
307	1570	3605	233	1374	4949	-68	34	128	744	55633	743	57969338
316	1553	3649	220	1381	4994	-67	33	131	745	55684	744	57969340
289	1556	3639	225	1395	5038	-67	33	131	746	55782	745	57969340
273	1604	3622	230	1406	5079	-63	35	127	747	55834	746	57969342
277	1567	3636	215	1414	5122	-63	35	127	748	55932	747	57969344
300	1539	3657	211	1424	5160	-69	37	127	749	55983	748	57969344
288	1551	3674	214	1434	5200	-69	37	127	750	56082	749	57969348
290	1535	3654	212	1441	5236	-70	30	124	751	56133	750	57969348
319	1509	3661	210	1453	5271	-70	30	124	752	56232	751	57969383
312	1505	3646	210	1463	5307	-75	39	125	753	56283	752	57969384
306	1495	3628	213	1474	5337	-75	39	125	754	56381	753	57969386
315	1503	3648	220	1487	5367	-75	31	131	755	56433	754	57969387
297	1471	3623	219	1494	5399	-75	31	131	756	56531	755	57969387
307	1472	3648	225	1507	5430	-80	36	120	757	56582	756	57969391
346	1479	3633	232	1518	5459	-80	36	120	758	56681	757	57969391
343	1456	3640	234	1530	5489	-76	36	118	759	56732	758	57969393
323	1456	3666	230	1545	5520	-76	36	118	760	56831	759	57969399
332	1479	3628	250	1558	5549	-81	33	123	761	56882	760	57969399
343	1467	3604	246	1571	5578	-81	33	123	762	56981	761	57969408
317	1463	3633	256	1580	5609	-83	33	121	763	57032	762	57969409
332	1473	3606	267	1592	5633	-83	33	121	764	57131	763	57969412
331	1466	3645	267	1602	5664	-87	23	123	765	57182	764	57969445
297	1494	3611	280	1613	5698	-87	23	123	766	57281	765	57969445
286	1515	3587	288	1623	5724	-84	36	116	767	57332	766	57969448
231	1461	3622	278	1630	5754	-84	36	116	768	57430	767	57969448
216	1556	3656	295	1638	5776	-87	39	115	769	57481	768	57969451
212	1624	3614	302	1645	5807	-87	39	115	770	57580	769	57969452
174	1604	3645	284	1649	5840	-89	37	117	771	57631	770	57969452
186	1622	3648	293	1661	5867	-89	37	117	772	57730	771	57969457
185	1655	3600	303	1666	5886	-87	31	117	773	57781	772	57969458
150	1666	3611	290	1666	5910	-87	31	117	774	57880	773	57969461
158	1659	3616	287	1667	5936	-91	29	119	775	57931	774	57969494
137	1663	3627	288	1666	5957	-91	29	119	776	58030	775	57969498
134	1660	3637	287	1667	5975	-97	33	119	777	58081	776	57969499
110	1670	3615	284	1669	5995	-97	33	119	778	58180	777	57969500
105	1647	3627	280	1669	6006	-96	34	112	779	58231	778	57969500
109	1655	3621	280	1672	6017	-96	34	112	780	58330	779	57969501
111	1644	3601	281	1672	6029	-96	34	110	781	58381	780	57969501
97	1612	3624	274	1673	6034	-96	34	110	782	58479	781	57969507
94	1585	3621	273	1672	6037	-103	33	113	783	58530	782	57969508
104	1562	3621	275	1670	6039	-103	33	113	784	58629	783	57969541
105	1556	3647	280	1670	6036	-101	25	113	785	58680	784	57969541
96	1544	3633	276	1667	6029	-101	25	113	786	58779	785	57969543
91	1512	3623	283	1667	6022	-102	28	110	787	58830	786	57969546
142	1536	3683	280	1667	6009	-102	28	110	788	58929	787	57969549
131	1581	3655	290	1667	5993	-104	24	110	789	58980	788	57969549
137	1578	3605	288	1672	5982	-104	24	110	790	59079	789	57969550
163	1557	3626	276	1674	5968	-102	26	110	791	59130	790	57969551
156	1587	3621	285	1674	5953	-102	26	110	792	59229	791	57969557
178	1630	3605	293	1676	5937	-108	22	108	793	59280	792	57969558
168	1608	3598	279	1676	5924	-108	22	108	794	59379	793	57969592
174	1595	3609	276	1679	5908	-107	23	111	795	59430	794	57969593
157	1624	3622	282	1682	5896	-107	23	111	796	59528	795	57969595
138	1627	3624	275	1681	5883	-112	22	106	797	59580	796	57969596
121	1617	3615	268	1681	5865	-112	22	106	798	59679	797	57969597
110	1615	3623	269	1681	5858	-111	27	107	799	59730	798	57969600
99	1644	3643	267	1683	5845	-111	27	107	800	59829	799	57969600
77	1634	3640	267	1681	5833	-113	23	109	801	59880	800	57969602
64	1618	3614	265	1676	5829	-113	23	109	802	59979	801	57969605
65	1598	3645	260	1674	5817	-114	16	104	803	60030	802	57969605
41	1607	3603	263	1667	5812	-114	16	104	804	60129	803	57969656
44	1592	3617	260	1664	5805	-115	11	115	805	60180	804	57969657
38	1586	3626	256	1660	5800	-115	11	115	806	60279	805	57969659
19	1585	3647	255	1650	5793	-119	17	107	807	60330	806	57969660
10	1582	3654	255	1644	5789	-119	17	107	808	60429	807	57969662
11	1582	3639	256	1636	5787	-119	15	101	809	60480	808	57969663
13	1553	3650	257	1634	5778	-119	15	101	810	60579	809	57969664
42	1562	3642	256	1628	5777	-122	16	96	811	60630	810	57969667
44	1562	3646	255	1620	5774	-122	16	96	812	60729	811	57969668
45	1548	3654	256	1616	5764	-124	14	100	813	60780	812	57969670
74	1553	3640	256	1612	5760	-124	14	100	814	60879	813	57969671
84	1561	3638	256	1609	5754	-124	8	96	815	60930	814	57969679
96	1546	3624	256	1606	5745	-124	8	96	816	61029	815	57969681
99	1555	3645	255	1603	5737	-117	11	109	817	61080	816	57969681
101	1549	3641	254	1600	5728	-117	11	109	818	61179	817	57969682
127	1565	3630	258	1597	5717	-120	4	104	819	61230	818	57969712
144	1555	3634	259	1598	5705	-120	4	104	820	61329	819	57969712
162	1550	3634	260	1598	5695	-122	6	106	821	61380	820	57969716
124	1554	3649	260	1599	5684	-122	6	106	822	61479	821	57969716
128	1532	3640	260	1600	5667	-124	6	98	823	61530	822	57969718
135	1544	3628	256	1598	5659	-124	6	98	824	61629	823	57969720
128	1560	3654	254	1600	5650	-129	1	101	825	61680	824	57969720
136	1559	3646	252	1601	5635	-129	1	101	826	61779	825	57969727
122	1556	3651	256	1599	5625	-124	-4	106	827	61830	826	57969727
121	1559	3662	254	1597	5615	-124	-4	106	828	61929	827	57969731
101	1571	3664	255	1594	5605	-119	-3	105	829	61980	828	57969764
91	1553	3661	254	1592	5593	-119	-3	105	830	62079	829	57969768
93	1554	3664	252	1589	5583	-125	1	99	831	62130	830	57969769
91	1556	3646	250	1588	5576	-125	1	99	832	62228	831	57969769
83	1538	3664	251	1582	5571	-134	-6	98	833	62279	832	57969771
74	1563	3640	247	1578	5559	-134	-6	98	834	62378	833	57969771
58	1559	3654	249	1575	5551	-130	-6	98	835	62429	834	57969773
67	1552	3675	246	1571	5546	-130	-6	98	836	62528	835	57969775
65	1557	3643	242	1565	5536	-127	-9	95	837	62579	836	57969775
57	1541	3661	244	1560	5530	-127	-9	95	838	62678	837	57969810
58	1545	3654	243	1556	5526	-127	-11	101	839	62728	838	57969811
64	1530	3642	243	1550	5518	-127	-11	101	840	62827	839	57969813
76	1529	3652	240	1548	5507	-126	-12	98	841	62878	840	57969815
77	1528	3646	240	1539	5500	-126	-12	98	842	62977	841	57969823
88	1524	3654	242	1537	5493	-131	-11	97	843	63028	842	57969823
100	1518	3644	239	1536	5486	-131	-11	97	844	63127	843	57969824
110	1523	3638	238	1532	5474	-128	-12	94	845	63178	844	57969824
127	1520	3659	241	1530	5465	-128	-12	94	846	63276	845	57969826
120	1503	3659	243	1529	5452	-130	-16	104	847	63327	846	57969827
123	1504	3663	244	1526	5443	-130	-16	104	848	63426	847	57969836
149	1502	3642	244	1523	5430	-131	-21	103	849	63477	848	57969836
140	1506	3645	242	1522	5419	-131	-21	103	850	63576	849	57969840
133	1493	3657	244	1522	5409	-127	-13	99	851	63627	850	57969874
142	1472	3653	244	1520	5397	-127	-13	99	852	63726	851	57969874
119	1500	3650	245	1516	5382	-125	-17	101	853	63776	852	57969877
137	1507	3657	242	1513	5369	-125	-17	101	854	63875	853	57969877
139	1508	3662	244	1514	5362	-131	-13	95	855	63926	854	57969880
123	1517	3649	240	1513	5351	-131	-13	95	856	64025	855	57969881
108	1517	3632	240	1508	5336	-131	-21	95	857	64076	856	57969881
107	1517	3684	237	1504	5328	-131	-21	95	858	64175	857	57969886
98	1521	3645	237	1501	5317	-125	-33	99	859	64226	858	57969890
104	1514	3649	237	1499	5307	-125	-33	99	860	64325	859	57969891
90	1530	3665	235	1495	5298	-122	-28	98	861	64376	860	57969897
94	1533	3662	233	1495	5286	-122	-28	98	862	64474	861	57969898
93	1507	3634	233	1487	5275	-128	-30	102	863	64525	862	57969933
101	1507	3650	231	1486	5270	-128	-30	102	864	64624	863	57969936
87	1519	3644	231	1482	5256	-122	-24	102	865	64675	864	57969937
106	1496	3665	228	1479	5248	-122	-24	102	866	64774	865	57969937
98	1478	3655	227	1472	5241	-126	-34	96	867	64825	866	57969939
99	1497	3652	225	1471	5226	-126	-34	96	868	64923	867	57969941
110	1498	3661	224	1464	5214	-125	-35	101	869	64975	868	57969941
93	1481	3654	223	1461	5208	-125	-35	101	870	65074	869	57969946
119	1478	3686	225	1458	5198	-122	-34	100	871	65125	870	57969947
116	1467	3671	223	1455	5187	-122	-34	100	872	65224	871	57969951
127	1469	3656	222	1452	5176	-125	-41	105	873	65275	872	57969983
136	1468	3654	223	1453	5165	-125	-41	105	874	65374	873	57969986
108	1465	3659	226	1450	5150	-120	-42	102	875	65425	874	57969987
134	1473	3671	225	1446	5145	-120	-42	102	876	65524	875	57969987
129	1468	3628	226	1440	5135	-126	-32	98	877	65575	876	57969989
140	1448	3686	224	1441	5121	-126	-32	98	878	65674	877	57969991
124	1464	3670	228	1438	5112	-121	-39	97	879	65725	878	57969991
133	1465	3685	227	1434	5102	-121	-39	97	880	65823	879	57969994
126	1460	3666	227	1431	5087	-122	-40	102	881	65875	880	57969995
128	1469	3679	225	1428	5079	-122	-40	102	882	65974	881	57969998
140	1473	3670	226	1424	5070	-121	-47	105	883	66024	882	57970032
123	1470	3681	226	1423	5057	-121	-47	105	884	66123	883	57970032
143	1468	3675	225	1421	5047	-121	-47	105	885	66174	884	57970037
123	1460	3670	221	1419	5038	-121	-47	105	886	66273	885	57970037
121	1466	3671	222	1415	5026	-118	-48	100	887	66324	886	57970037
116	1489	3662	217	1410	5013	-118	-48	100	888	66423	887	57970039
131	1474	3671	217	1409	5006	-116	-46	94	889	66474	888	57970039
103	1479	3671	214	1403	4994	-116	-46	94	890	66573	889	57970044
128	1485	3667	214	1401	4981	-119	-47	105	891	66624	890	57970044
156	1452	3651	214	1400	4972	-119	-47	105	892	66723	891	57970046
140	1460	3676	213	1397	4960	-114	-52	106	893	66774	892	57970079
123	1449	3663	210	1394	4951	-114	-52	106	894	66873	893	57970080
125	1449	3664	212	1392	4941	-116	-52	104	895	66924	894	57970082
133	1443	3679	210	1387	4931	-116	-52	104	896	67023	895	57970083
140	1437	3683	210	1383	4919	-113	-45	99	897	67074	896	57970088
149	1434	3671	208	1384	4909	-113	-45	99	898	67173	897	57970090
132	1437	3660	210	1380	4897	-111	-51	107	899	67224	898	57970091
145	1426	3662	205	1379	4885	-111	-51	107	900	67323	899	57970097
137	1431	3674	205	1374	4876	-109	-57	101	901	67374	900	57970098
141	1432	3673	206	1371	4865	-109	-57	101	902	67473	901	57970130
146	1429	3686	207	1369	4852	-112	-58	106	903	67524	902	57970130
135	1416	3665	204	1367	4844	-112	-58	106	904	67623	903	57970132
146	1411	3675	207	1366	4833	-106	-56	104	905	67674	904	57970133
151	1433	3666	205	1364	4823	-106	-56	104	906	67772	905	57970134
142	1426	3673	207	1359	4815	-111	-55	97	907	67823	906	57970137
157	1427	3683	205	1355	4801	-111	-55	97	908	67922	907	57970138
138	1433	3685	207	1353	4791	-108	-62	110	909	67973	908	57970140
159	1418	3669	204	1353	4784	-108	-62	110	910	68071	909	57970143
155	1438	3676	202	1348	4771	-107	-63	107	911	68123	910	57970143
136	1443	3684	199	1348	4759	-107	-63	107	912	68222	911	57970177
146	1444	3683	200	1346	4752	-103	-57	119	913	68273	912	57970178
155	1437	3697	199	1344	4741	-103	-57	119	914	68371	913	57970180
144	1422	3659	196	1340	4729	-111	-57	111	915	68423	914	57970181
143	1433	3686	194	1338	4721	-111	-57	111	916	68522	915	57970181
139	1427	3659	198	1335	4711	-109	-57	107	917	68573	916	57970185
151	1421	3690	195	1334	4701	-109	-57	107	918	68672	917	57970185
158	1421	3692	191	1331	4689	-105	-59	111	919	68723	918	57970187
143	1401	3682	190	1330	4679	-105	-59	111	920	68822	919	57970194
151	1409	3677	191	1328	4668	-107	-65	113	921	68873	920	57970194
159	1406	3662	189	1326	4661	-107	-65	113	922	68972	921	57970229
141	1418	3670	189	1322	4652	-102	-70	108	923	69023	922	57970233
161	1406	3679	188	1321	4640	-102	-70	108	924	69122	923	57970233
159	1406	3679	190	1318	4630	-93	-65	107	925	69173	924	57970235
143	1386	3653	187	1314	4623	-93	-65	107	926	69271	925	57970237
149	1393	3703	189	1315	4612	-101	-61	105	927	69323	926	57970238
142	1393	3692	188	1316	4599	-101	-61	105	928	69422	927	57970238
143	1388	3699	190	1310	4593	-100	-62	112	929	69473	928	57970240
143	1392	3685	190	1307	4583	-100	-62	112	930	69572	929	57970240
142	1394	3675	190	1304	4572	-98	-66	112	931	69623	930	57970243
152	1400	3684	187	1302	4565	-98	-66	112	932	69722	931	57970296
156	1386	3684	187	1299	4555	-96	-66	116	933	69773	932	57970306
148	1394	3681	185	1299	4545	-96	-66	116	934	69872	933	57970307
140	1393	3676	185	1296	4538	-94	-64	112	935	69923	934	57970308
155	1396	3686	187	1295	4529	-94	-64	112	936	70022	935	57970308
149	1387	3689	183	1293	4517	-88	-66	108	937	70073	936	57970308
145	1381	3703	180	1291	4509	-88	-66	108	938	70172	937	57970308
147	1390	3673	183	1287	4497	-94	-64	114	939	70223	938	57970310
157	1391	3682	182	1285	4489	-94	-64	114	940	70322	939	57970310
140	1386	3684	183	1281	4480	-88	-66	114	941	70373	940	57970310
143	1403	3701	184	1278	4471	-88	-66	114	942	70472	941	57970311
149	1391	3697	182	1277	4461	-88	-68	112	943	70523	942	57970312
161	1383	3683	178	1277	4451	-88	-68	112	944	70621	943	57970315
158	1383	3678	178	1272	4443	-87	-65	115	945	70673	944	57970315
150	1362	3678	177	1270	4434	-87	-65	115	946	70772	945	57970317
156	1366	3713	179	1265	4427	-80	-70	118	947	70823	946	57970350
145	1374	3673	177	1263	4420	-80	-70	118	948	70921	947	57970351
148	1364	3709	178	1259	4405	-89	-73	121	949	70972	948	57970354
140	1363	3700	177	1258	4400	-89	-73	121	950	71071	949	57970354
151	1356	3692	176	1256	4394	-86	-68	116	951	71122	950	57970356
128	1371	3702	174	1252	4380	-86	-68	116	952	71221	951	57970358
129	1344	3706	178	1249	4374	-86	-66	114	953	71272	952	57970358
142	1354	3697	176	1247	4364	-86	-66	114	954	71371	953	57970363
129	1352	3676	176	1244	4352	-83	-67	119	955	71422	954	57970363
131	1354	3701	174	1241	4346	-83	-67	119	956	71521	955	57970398
143	1338	3695	175	1235	4341	-78	-76	126	957	71572	956	57970399
136	1356	3690	176	1231	4329	-78	-76	126	958	71671	957	57970400
135	1348	3684	174	1226	4323	-77	-69	121	959	71722	958	57970401
131	1351	3675	175	1228	4315	-77	-69	121	960	71821	959	57970402
125	1357	3676	177	1223	4304	-77	-71	115	961	71872	960	57970405
132	1352	3693	174	1221	4297	-77	-71	115	962	71971	961	57970405
148	1351	3696	174	1219	4289	-81	-71	121	963	72022	962	57970410
153	1342	3678	172	1215	4277	-81	-71	121	964	72120	963	57970410
149	1349	3692	173	1210	4268	-71	-73	121	965	72171	964	57970411
160	1342	3691	174	1210	4262	-71	-73	121	966	72269	965	57970448
138	1347	3708	172	1206	4250	-77	-65	123	967	72320	966	57970449
137	1341	3689	172	1204	4241	-77	-65	123	968	72419	967	57970451
140	1340	3702	173	1203	4234	-73	-69	113	969	72470	968	57970451
151	1334	3666	169	1200	4222	-73	-69	113	970	72568	969	57970453
154	1344	3706	172	1196	4214	-73	-69	121	971	72620	970	57970455
150	1322	3700	171	1193	4208	-73	-69	121	972	72718	971	57970455
145	1333	3694	169	1191	4196	-74	-66	122	973	72769	972	57970459
128	1318	3716	170	1188	4185	-74	-66	122	974	72868	973	57970459
146	1335	3734	170	1182	4179	-69	-73	129	975	72919	974	57970493
146	1336	3695	169	1181	4169	-69	-73	129	976	73018	975	57970494
147	1325	3717	170	1178	4158	-74	-74	122	977	73069	976	57970496
142	1330	3688	170	1178	4154	-74	-74	122	978	73168	977	57970497
125	1326	3715	170	1173	4144	-65	-67	119	979	73219	978	57970497
134	1319	3713	167	1169	4135	-65	-67	119	980	73318	979	57970501
122	1321	3708	169	1167	4127	-64	-68	124	981	73369	980	57970501
125	1325	3696	169	1161	4118	-64	-68	124	982	73468	981	57970505
135	1326	3697	169	1157	4111	-63	-71	129	983	73519	982	57970505
127	1333	3672	168	1154	4102	-63	-71	129	984	73618	983	57970507
155	1309	3694	169	1149	4095	-59	-73	131	985	73669	984	57970540
132	1299	3701	168	1148	4087	-59	-73	131	986	73768	985	57970541
122	1319	3717	167	1144	4079	-64	-68	134	987	73819	986	57970544
125	1309	3707	170	1140	4070	-64	-68	134	988	73918	987	57970544
125	1299	3730	168	1134	4056	-63	-67	129	989	73969	988	57970546
148	1310	3718	167	1133	4052	-63	-67	129	990	74068	989	57970548
130	1309	3690	170	1128	4043	-64	-66	126	991	74119	990	57970549
154	1323	3727	168	1127	4033	-64	-66	126	992	74218	991	57970553
145	1301	3723	167	1124	4025	-57	-73	129	993	74269	992	57970554
143	1301	3707	165	1122	4016	-57	-73	129	994	74368	993	57970560
145	1306	3698	167	1116	4004	-53	-69	135	995	74419	994	57970589
146	1313	3690	165	1116	3992	-53	-69	135	996	74518	995	57970592
140	1307	3706	165	1111	3984	-62	-70	132	997	74569	996	57970593
147	1306	3714	161	1113	3974	-62	-70	132	998	74668	997	57970594
159	1319	3723	163	1108	3964	-63	-61	129	999	74719	998	57970597
148	1315	3706	161	1105	3956	-63	-61	129	1000	74818	999	57970597
160	1307	3711	163	1104	3941	-58	-68	128	1001	74869	1000	57970598
170	1322	3724	161	1102	3934	-58	-68	128	1002	74968	1001	57970601
146	1303	3705	163	1100	3926	-56	-60	132	1003	75019	1002	57970601
149	1307	3677	159	1095	3913	-56	-60	132	1004	75117	1003	57970605
152	1303	3709	161	1093	3905	-51	-67	135	1005	75168	1004	57970637
149	1303	3712	159	1090	3893	-51	-67	135	1006	75266	1005	57970638
129	1295	3705	158	1089	3883	-51	-63	131	1007	75317	1006	57970641
134	1319	3714	158	1086	3873	-51	-63	131	1008	75416	1007	57970641
123	1298	3738	160	1082	3865	-56	-66	128	1009	75467	1008	57970645
138	1298	3713	158	1080	3854	-56	-66	128	1010	75566	1009	57970645
145	1296	3709	156	1076	3844	-54	-60	126	1011	75617	1010	57970647
132	1295	3709	153	1075	3838	-54	-60	126	1012	75716	1011	57970652
147	1301	3720	156	1070	3827	-51	-65	139	1013	75767	1012	57970652
136	1302	3700	154	1067	3815	-51	-65	139	1014	75865	1013	57970662
143	1301	3740	155	1061	3809	-46	-64	136	1015	75917	1014	57970663
147	1301	3711	155	1059	3799	-46	-64	136	1016	76016	1015	57970666
143	1294	3708	156	1059	3785	-48	-70	134	1017	76067	1016	57970700
134	1295	3691	155	1056	3780	-48	-70	134	1018	76166	1017	57970701
153	1291	3706	154	1049	3770	-49	-63	137	1019	76217	1018	57970704
137	1287	3698	152	1047	3756	-49	-63	137	1020	76316	1019	57970704
153	1290	3711	152	1043	3749	-50	-58	136	1021	76367	1020	57970708
137	1302	3725	153	1045	3741	-50	-58	136	1022	76466	1021	57970708
149	1283	3718	150	1041	3729	-51	-61	131	1023	76517	1022	57970709
138	1275	3712	149	1037	3722	-51	-61	131	1024	76616	1023	57970711
154	1276	3706	148	1034	3710	-41	-61	139	1025	76667	1024	57970712
141	1275	3716	149	1032	3700	-41	-61	139	1026	76766	1025	57970716
154	1281	3720	147	1027	3690	-46	-58	136	1027	76817	1026	57970749
146	1283	3709	146	1028	3682	-46	-58	136	1028	76916	1027	57970749
141	1285	3737	150	1024	3672	-44	-62	138	1029	76967	1028	57970752
161	1282	3699	148	1020	3660	-44	-62	138	1030	77066	1029	57970753
143	1265	3703	146	1017	3650	-44	-60	132	1031	77117	1030	57970755
139	1266	3709	146	1016	3641	-44	-60	132	1032	77216	1031	57970758
149	1274	3728	147	1014	3631	-45	-61	131	1033	77267	1032	57970759
141	1277	3740	145	1012	3621	-45	-61	131	1034	77366	1033	57970760
155	1275	3745	145	1006	3611	-37	-63	145	1035	77417	1034	57970760
148	1254	3711	144	1008	3599	-37	-63	145	1036	77516	1035	57970796
134	1271	3740	145	1002	3590	-38	-56	142	1037	77567	1036	57970796
133	1270	3734	144	999	3579	-38	-56	142	1038	77666	1037	57970798
148	1267	3725	141	998	3572	-41	-61	141	1039	77717	1038	57970799
142	1271	3716	141	994	3562	-41	-61	141	1040	77816	1039	57970800
145	1280	3734	142	990	3554	-36	-52	130	1041	77867	1040	57970803
118	1258	3723	142	986	3544	-36	-52	130	1042	77966	1041	57970803
142	1255	3739	144	984	3535	-39	-55	141	1043	78017	1042	57970806
138	1274	3731	143	980	3525	-39	-55	141	1044	78116	1043	57970811
137	1252	3721	143	975	3514	-32	-60	144	1045	78167	1044	57970812
133	1249	3727	139	972	3508	-32	-60	144	1046	78266	1045	57970822
148	1259	3721	143	973	3495	-34	-54	148	1047	78317	1046	57970823
155	1274	3715	140	969	3486	-34	-54	148	1048	78416	1047	57970826
154	1251	3735	138	968	3480	-38	-56	142	1049	78467	1048	57970859
153	1264	3719	139	964	3468	-38	-56	142	1050	78566	1049	57970859
144	1257	3725	137	961	3456	-37	-53	141	1051	78617	1050	57970862
144	1262	3731	135	958	3450	-37	-53	141	1052	78716	1051	57970862
148	1253	3735	138	953	3442	-39	-53	141	1053	78767	1052	57970865
160	1245	3724	137	953	3429	-39	-53	141	1054	78866	1053	57970866
135	1242	3740	137	952	3421	-35	-55	143	1055	78917	1054	57970866
154	1244	3744	135	947	3414	-35	-55	143	1056	79016	1055	57970870
167	1238	3715	135	945	3402	-28	-54	142	1057	79067	1056	57970870
151	1261	3719	134	939	3394	-28	-54	142	1058	79166	1057	57970877
147	1249	3740	134	940	3382	-31	-51	147	1059	79217	1058	57970908
147	1252	3730	132	936	3370	-31	-51	147	1060	79316	1059	57970908
146	1251	3732	134	933	3364	-32	-50	146	1061	79367	1060	57970938
147	1239	3720	133	930	3356	-32	-50	146	1062	79466	1061	57970938
138	1235	3752	136	925	3340	-30	-52	142	1063	79517	1062	57970941
132	1250	3733	132	926	3335	-30	-52	142	1064	79616	1063	57970941
145	1244	3738	132	920	3327	-31	-49	141	1065	79667	1064	57970943
136	1240	3725	131	922	3317	-31	-49	141	1066	79766	1065	57970945
161	1237	3749	129	918	3306	-34	-50	144	1067	79817	1066	57970946
153	1241	3744	129	915	3296	-34	-50	144	1068	79916	1067	57970949
153	1240	3738	130	910	3278	-28	-46	144	1069	79967	1068	57970949
139	1239	3726	129	908	3290	-28	-46	144	1070	80066	1069	57970951
148	1228	3742	127	906	3276	-31	-47	141	1071	80116	1070	57970956
148	1239	3731	125	903	3259	-31	-47	141	1072	80215	1071	57970959
139	1235	3724	129	900	3256	-30	-46	148	1073	80266	1072	57970960
158	1238	3731	128	897	3254	-30	-46	148	1074	80365	1073	57970960
157	1246	3724	127	896	3246	-26	-46	148	1075	80416	1074	57970961
143	1227	3713	127	893	3230	-26	-46	148	1076	80515	1075	57970970
153	1228	3722	127	890	3218	-25	-45	149	1077	80566	1076	57970973
143	1246	3733	125	887	3203	-25	-45	149	1078	80664	1077	57971005
136	1242	3718	122	884	3199	-22	-44	150	1079	80715	1078	57971005
147	1231	3714	121	881	3191	-22	-44	150	1080	80814	1079	57971007
137	1231	3724	123	876	3179	-28	-44	150	1081	80865	1080	57971008
163	1225	3739	123	876	3167	-28	-44	150	1082	80964	1081	57971009
156	1229	3720	124	873	3162	-25	-37	141	1083	81015	1082	57971012
147	1226	3736	123	872	3149	-25	-37	141	1084	81113	1083	57971012
148	1217	3728	123	868	3142	-29	-39	145	1085	81164	1084	57971018
145	1228	3718	121	867	3132	-29	-39	145	1086	81263	1085	57971021
136	1210	3748	120	861	3121	-31	-43	149	1087	81314	1086	57971021
150	1224	3742	121	861	3112	-31	-43	149	1088	81413	1087	57971052
150	1228	3721	119	856	3104	-28	-42	152	1089	81464	1088	57971053
145	1218	3715	121	853	3092	-28	-42	152	1090	81563	1089	57971055
135	1238	3748	120	850	3084	-24	-36	146	1091	81614	1090	57971056
145	1228	3722	119	848	3076	-24	-36	146	1092	81713	1091	57971057
150	1230	3738	119	846	3066	-23	-39	145	1093	81764	1092	57971059
164	1225	3731	116	844	3054	-23	-39	145	1094	81863	1093	57971060
157	1228	3741	117	840	3047	-25	-35	145	1095	81914	1094	57971065
143	1225	3729	116	837	3037	-25	-35	145	1096	82013	1095	57971065
150	1215	3741	117	832	3027	-29	-37	145	1097	82064	1096	57971068
144	1226	3745	115	834	3018	-29	-37	145	1098	82163	1097	57971101
151	1238	3734	115	831	3012	-24	-40	148	1099	82214	1098	57971102
151	1226	3734	114	828	2998	-24	-40	148	1100	82313	1099	57971106
153	1223	3737	113	826	2991	-20	-38	146	1101	82364	1100	57971108
150	1225	3729	112	823	2982	-20	-38	146	1102	82462	1101	57971108
146	1222	3746	111	818	2972	-24	-40	146	1103	82513	1102	57971109
151	1218	3719	108	816	2961	-24	-40	146	1104	82612	1103	57971109
151	1220	3742	111	812	2953	-27	-35	145	1105	82663	1104	57971116
156	1215	3732	109	813	2942	-27	-35	145	1106	82762	1105	57971116
150	1219	3754	110	809	2936	-25	-33	147	1107	82813	1106	57971118
150	1212	3747	109	803	2928	-25	-33	147	1108	82912	1107	57971152
148	1209	3754	108	806	2917	-20	-34	144	1109	82963	1108	57971152
152	1222	3714	110	805	2907	-20	-34	144	1110	83061	1109	57971156
140	1201	3742	111	801	2899	-25	-37	147	1111	83112	1110	57971158
148	1209	3753	107	794	2888	-25	-37	147	1112	83211	1111	57971158
161	1210	3737	107	791	2880	-19	-31	145	1113	83262	1112	57971159
145	1212	3716	104	791	2870	-19	-31	145	1114	83361	1113	57971160
172	1206	3737	106	788	2862	-26	-34	144	1115	83412	1114	57971164
154	1193	3749	105	786	2853	-26	-34	144	1116	83511	1115	57971167
147	1222	3754	109	782	2848	-20	-32	148	1117	83562	1116	57971167
154	1200	3744	105	778	2834	-20	-32	148	1118	83660	1117	57971200
145	1225	3749	106	775	2825	-21	-27	149	1119	83711	1118	57971200
161	1205	3752	103	774	2819	-21	-27	149	1120	83810	1119	57971203
152	1216	3750	103	773	2809	-20	-30	146	1121	83861	1120	57971204
147	1215	3740	101	772	2799	-20	-30	146	1122	83960	1121	57971206
144	1204	3750	102	766	2792	-20	-28	150	1123	84011	1122	57971208
157	1207	3755	101	764	2782	-20	-28	150	1124	84110	1123	57971208
142	1209	3737	103	761	2772	-24	-22	144	1125	84161	1124	57971217
142	1201	3737	100	763	2764	-24	-22	144	1126	84260	1125	57971217
155	1197	3735	100	756	2754	-17	-31	153	1127	84311	1126	57971250
146	1200	3718	99	755	2744	-17	-31	153	1128	84410	1127	57971250
147	1211	3743	101	752	2738	-24	-28	144	1129	84461	1128	57971252
153	1188	3729	99	750	2729	-24	-28	144	1130	84560	1129	57971253
150	1200	3746	102	748	2716	-15	-25	143	1131	84611	1130	57971253
148	1185	3754	98	745	2712	-15	-25	143	1132	84710	1131	57971257
150	1183	3734	98	739	2701	-22	-22	144	1133	84761	1132	57971257
170	1197	3762	95	739	2689	-22	-22	144	1134	84860	1133	57971260
149	1191	3709	98	734	2683	-21	-23	141	1135	84911	1134	57971262
156	1187	3730	95	733	2677	-21	-23	141	1136	85010	1135	57971262
148	1200	3728	96	733	2664	-19	-27	157	1137	85061	1136	57971297
168	1191	3750	97	728	2658	-19	-27	157	1138	85160	1137	57971297
147	1207	3748	97	726	2649	-18	-24	146	1139	85211	1138	57971300
158	1193	3743	98	724	2638	-18	-24	146	1140	85310	1139	57971301
166	1195	3741	94	720	2632	-22	-18	150	1141	85361	1140	57971302
165	1190	3740	94	720	2626	-22	-18	150	1142	85460	1141	57971304
166	1196	3749	96	718	2613	-27	-21	149	1143	85511	1142	57971308
163	1196	3745	94	716	2606	-27	-21	149	1144	85610	1143	57971309
147	1180	3757	94	712	2598	-27	-19	143	1145	85661	1144	57971314
150	1184	3755	91	711	2586	-27	-19	143	1146	85760	1145	57971314
153	1177	3738	92	707	2579	-16	-22	152	1147	85811	1146	57971349
152	1183	3767	90	706	2569	-16	-22	152	1148	85910	1147	57971349
154	1192	3740	92	703	2560	-17	-15	147	1149	85961	1148	57971351
153	1196	3740	90	700	2552	-17	-15	147	1150	86060	1149	57971352
147	1190	3748	94	694	2544	-22	-12	148	1151	86111	1150	57971353
146	1193	3755	89	692	2534	-22	-12	148	1152	86210	1151	57971358
155	1177	3748	91	692	2527	-24	-20	150	1153	86261	1152	57971359
150	1188	3730	88	692	2518	-24	-20	150	1154	86360	1153	57971359
160	1195	3732	87	684	2509	-23	-15	141	1155	86411	1154	57971361
151	1183	3727	89	686	2499	-23	-15	141	1156	86510	1155	57971362
154	1201	3763	90	682	2491	-16	-20	152	1157	86561	1156	57971396
162	1188	3751	89	679	2482	-16	-20	152	1158	86660	1157	57971396
157	1186	3732	90	675	2472	-26	-14	148	1159	86711	1158	57971400
155	1184	3747	87	677	2468	-26	-14	148	1160	86809	1159	57971400
154	1195	3758	87	671	2458	-23	-11	145	1161	86860	1160	57971402
157	1207	3740	82	668	2451	-23	-11	145	1162	86959	1161	57971403
172	1184	3753	85	666	2440	-25	-11	145	1163	87010	1162	57971403
163	1190	3744	86	666	2431	-25	-11	145	1164	87108	1163	57971407
174	1192	3729	85	661	2422	-19	-17	149	1165	87160	1164	57971408
154	1165	3759	81	660	2418	-19	-17	149	1166	87258	1165	57971414
165	1186	3741	82	657	2408	-23	-9	147	1167	87310	1166	57971446
160	1169	3760	82	654	2397	-23	-9	147	1168	87409	1167	57971447
170	1175	3749	82	651	2388	-21	-15	153	1169	87460	1168	57971450
166	1183	3726	80	651	2383	-21	-15	153	1170	87558	1169	57971450
149	1182	3749	82	647	2370	-23	-9	143	1171	87609	1170	57971452
168	1183	3744	78	646	2364	-23	-9	143	1172	87708	1171	57971453
161	1188	3747	79	642	2357	-23	-11	141	1173	87759	1172	57971454
143	1171	3747	78	640	2346	-23	-11	141	1174	87857	1173	57971457
164	1195	3745	77	636	2340	-29	-7	151	1175	87908	1174	57971458
163	1170	3758	78	633	2331	-29	-7	151	1176	88007	1175	57971461
153	1182	3763	84	633	2322	-27	-13	145	1177	88058	1176	57971494
163	1170	3737	80	629	2314	-27	-13	145	1178	88156	1177	57971496
171	1185	3754	78	628	2305	-18	-10	144	1179	88208	1178	57971498
156	1156	3763	76	626	2296	-18	-10	144	1180	88307	1179	57971498
150	1184	3731	77	621	2289	-25	-5	145	1181	88358	1180	57971500
172	1182	3752	76	622	2280	-25	-5	145	1182	88457	1181	57971501
154	1177	3760	77	619	2271	-24	-8	146	1183	88507	1182	57971502
167	1181	3746	76	618	2264	-24	-8	146	1184	88606	1183	57971507
164	1187	3756	74	614	2255	-27	-9	149	1185	88657	1184	57971508
143	1170	3759	76	610	2242	-27	-9	149	1186	88756	1185	57971513
163	1175	3765	76	608	2235	-28	-8	148	1187	88807	1186	57971546
160	1173	3750	72	604	2232	-28	-8	148	1188	88906	1187	57971551
145	1174	3749	74	601	2221	-24	-2	146	1189	88957	1188	57971551
158	1193	3728	72	602	2213	-24	-2	146	1190	89055	1189	57971552
167	1173	3747	74	599	2206	-24	-2	144	1191	89106	1190	57971577
174	1176	3758	72	596	2195	-24	-2	144	1192	89205	1191	57971578
148	1180	3742	72	591	2187	-26	-8	142	1193	89256	1192	57971580
150	1176	3753	69	591	2179	-26	-8	142	1194	89355	1193	57971581
171	1152	3757	72	588	2171	-24	-4	142	1195	89406	1194	57971581
161	1169	3748	71	586	2161	-24	-4	142	1196	89505	1195	57971585
159	1165	3733	70	584	2156	-17	-1	141	1197	89556	1196	57971585
152	1168	3750	70	584	2144	-17	-1	141	1198	89655	1197	57971587
159	1173	3744	69	579	2137	-24	4	142	1199	89705	1198	57971588
155	1172	3747	69	579	2133	-24	4	142	1200	89804	1199	57971589
174	1161	3764	66	576	2122	-30	-10	140	1201	89855	1200	57971592
177	1171	3746	65	574	2111	-30	-10	140	1202	89954	1201	57971592
153	1176	3737	65	571	2106	-25	-3	147	1203	90005	1202	57971597
148	1165	3744	65	572	2097	-25	-3	147	1204	90104	1203	57971630
157	1162	3766	67	565	2087	-28	-4	144	1205	90155	1204	57971631
176	1158	3756	67	563	2081	-28	-4	144	1206	90254	1205	57971634
159	1161	3760	64	560	2072	-25	-1	145	1207	90305	1206	57971638
171	1162	3762	66	558	2064	-25	-1	145	1208	90403	1207	57971640
168	1165	3743	63	557	2057	-27	-1	147	1209	90454	1208	57971641
174	1162	3761	64	556	2047	-27	-1	147	1210	90553	1209	57971641
179	1169	3741	63	553	2040	-22	0	148	1211	90604	1210	57971642
153	1166	3765	62	550	2032	-22	0	148	1212	90703	1211	57971643
176	1174	3752	62	548	2026	-22	4	152	1213	90754	1212	57971647
164	1157	3748	60	547	2016	-22	4	152	1214	90852	1213	57971680
165	1165	3761	62	544	2010	-31	3	145	1215	90903	1214	57971680
159	1145	3757	61	543	2004	-31	3	145	1216	91002	1215	57971683
163	1166	3755	60	539	1993	-27	7	145	1217	91053	1216	57971683
169	1151	3766	59	536	1986	-27	7	145	1218	91152	1217	57971687
161	1162	3746	62	536	1980	-26	2	146	1219	91203	1218	57971687
183	1153	3760	60	532	1969	-26	2	146	1220	91302	1219	57971690
166	1164	3777	57	529	1962	-26	6	142	1221	91353	1220	57971691
155	1152	3750	60	527	1958	-26	6	142	1222	91452	1221	57971691
166	1156	3743	59	527	1949	-28	6	144	1223	91503	1222	57971727
152	1140	3755	57	524	1939	-28	6	144	1224	91602	1223	57971727
173	1168	3751	57	520	1933	-26	4	142	1225	91653	1224	57971730
145	1152	3747	56	518	1924	-26	4	142	1226	91752	1225	57971731
171	1150	3783	55	517	1917	-29	9	145	1227	91803	1226	57971731
168	1150	3763	56	515	1909	-29	9	145	1228	91902	1227	57971734
160	1152	3764	56	510	1901	-31	1	137	1229	91953	1228	57971735
166	1158	3738	55	510	1891	-31	1	137	1230	92052	1229	57971737
158	1167	3757	56	505	1887	-30	6	142	1231	92103	1230	57971739
170	1162	3749	53	507	1877	-30	6	142	1232	92202	1231	57971740
166	1161	3761	54	506	1867	-23	7	141	1233	92253	1232	57971778
178	1146	3745	50	503	1865	-23	7	141	1234	92352	1233	57971778
173	1153	3778	53	499	1855	-26	8	146	1235	92403	1234	57971779
167	1144	3757	53	497	1847	-26	8	146	1236	92502	1235	57971780
175	1151	3747	51	494	1842	-29	13	143	1237	92553	1236	57971780
152	1149	3756	51	492	1830	-29	13	143	1238	92651	1237	57971784
173	1156	3766	51	490	1823	-31	3	147	1239	92703	1238	57971786
176	1138	3722	52	488	1818	-31	3	147	1240	92802	1239	57971786
172	1159	3748	54	488	1810	-30	8	140	1241	92853	1240	57971791
164	1139	3754	53	484	1803	-30	8	140	1242	92952	1241	57971791
165	1149	3761	49	479	1795	-31	7	147	1243	93003	1242	57971802
159	1155	3744	51	480	1788	-31	7	147	1244	93102	1243	57971802
164	1147	3750	51	479	1779	-28	12	146	1245	93153	1244	57971805
156	1170	3759	51	479	1772	-28	12	146	1246	93252	1245	57971838
167	1161	3781	50	476	1766	-29	9	143	1247	93303	1246	57971838
158	1154	3762	46	473	1755	-29	9	143	1248	93402	1247	57971842
167	1141	3768	46	468	1750	-30	12	150	1249	93453	1248	57971843
161	1149	3749	46	466	1743	-30	12	150	1250	93552	1249	57971847
157	1144	3771	47	465	1733	-24	10	142	1251	93603	1250	57971847
164	1158	3762	46	462	1726	-24	10	142	1252	93701	1251	57971849
167	1146	3762	48	460	1721	-31	13	141	1253	93753	1252	57971850
158	1154	3742	45	459	1712	-31	13	141	1254	93852	1253	57971850
174	1155	3750	47	458	1706	-36	10	142	1255	93903	1254	57971885
162	1151	3748	46	455	1702	-36	10	142	1256	94002	1255	57971887
158	1153	3751	47	453	1692	-31	13	149	1257	94053	1256	57971887
169	1151	3743	42	453	1683	-31	13	149	1258	94152	1257	57971888
168	1162	3776	43	448	1677	-34	16	142	1259	94203	1258	57971889
172	1160	3758	41	446	1668	-34	16	142	1260	94302	1259	57971892
169	1146	3766	42	443	1660	-32	12	146	1261	94353	1260	57971893
178	1144	3765	43	441	1655	-32	12	146	1262	94452	1261	57971896
179	1149	3753	43	441	1646	-33	11	139	1263	94503	1262	57971901
168	1161	3743	42	440	1640	-33	11	139	1264	94602	1263	57971902
169	1149	3754	41	435	1634	-35	9	147	1265	94653	1264	57971911
169	1142	3758	41	437	1624	-35	9	147	1266	94752	1265	57971911
178	1142	3756	41	431	1619	-38	16	146	1267	94803	1266	57971915
173	1137	3792	41	432	1613	-38	16	146	1268	94902	1267	57971949
166	1147	3778	40	430	1605	-36	8	146	1269	94953	1268	57971949
164	1149	3751	41	427	1596	-36	8	146	1270	95051	1269	57971952
169	1153	3754	40	425	1593	-31	15	145	1271	95102	1270	57971953
155	1143	3749	37	422	1585	-31	15	145	1272	95201	1271	57971956
164	1139	3777	39	419	1574	-37	11	143	1273	95252	1272	57971967
177	1138	3762	39	418	1570	-37	11	143	1274	95351	1273	57971970
159	1132	3761	39	416	1563	-32	16	140	1275	95402	1274	57971970
179	1158	3740	39	413	1554	-32	16	140	1276	95501	1275	57971971
166	1149	3748	38	410	1548	-37	19	143	1277	95552	1276	57971971
154	1142	3746	37	409	1540	-37	19	143	1278	95651	1277	57971971
176	1134	3758	37	408	1532	-37	15	143	1279	95702	1278	57971975
162	1145	3775	34	408	1527	-37	15	143	1280	95801	1279	57972008
168	1130	3751	36	404	1520	-35	13	141	1281	95852	1280	57972008
182	1137	3783	35	402	1510	-35	13	141	1282	95951	1281	57972011
178	1135	3754	35	402	1505	-44	16	140	1283	96002	1282	57972011
174	1143	3751	34	401	1498	-44	16	140	1284	96101	1283	57972014
177	1150	3769	33	396	1487	-39	21	141	1285	96152	1284	57972015
170	1147	3748	34	396	1484	-39	21	141	1286	96251	1285	57972015
165	1153	3766	35	393	1476	-37	19	133	1287	96302	1286	57972020
174	1143	3762	32	393	1467	-37	19	133	1288	96401	1287	57972020
178	1138	3730	33	390	1462	-35	13	147	1289	96452	1288	57972024
167	1143	3750	30	389	1457	-35	13	147	1290	96551	1289	57972058
153	1143	3744	33	383	1448	-34	16	140	1291	96602	1290	57972059
179	1141	3778	33	384	1443	-34	16	140	1292	96701	1291	57972060
168	1136	3764	29	383	1433	-38	20	140	1293	96752	1292	57972060
164	1145	3769	27	381	1427	-38	20	140	1294	96851	1293	57972064
169	1139	3779	31	378	1420	-34	16	138	1295	96902	1294	57972064
152	1160	3741	28	378	1416	-34	16	138	1296	97001	1295	57972067
157	1124	3771	29	374	1405	-31	15	135	1297	97052	1296	57972069
175	1134	3773	30	372	1401	-31	15	135	1298	97151	1297	57972069
165	1156	3771	31	370	1394	-37	13	147	1299	97202	1298	57972104
152	1153	3735	29	368	1386	-37	13	147	1300	97301	1299	57972107
161	1151	3755	28	365	1379	-35	17	143	1301	97352	1300	57972108
184	1131	3768	28	364	1374	-35	17	143	1302	97451	1301	57972108
232	1167	3646	39	366	1364	-41	19	141	1303	97502	1302	57972108
194	1512	3880	33	368	1359	-41	19	141	1304	97601	1303	57972111
140	933	3521	-1	353	1383	-41	19	137	1305	97652	1304	57972111
437	1222	3933	-12	380	1356	-41	19	137	1306	97751	1305	57972114
147	1454	3819	48	363	1362	-37	21	139	1307	97802	1306	57972120
244	1303	3509	40	372	1359	-37	21	139	1308	97901	1307	57972120
352	912	4006	-92	374	1372	-40	22	140	1309	97952	1308	57972130
153	1110	3895	35	375	1363	-40	22	140	1310	98051	1309	57972130
324	1365	3578	99	391	1344	-40	20	142	1311	98102	1310	57972132
235	863	3778	-74	374	1380	-40	20	142	1312	98201	1311	57972141
260	989	3823	3	388	1363	-39	15	139	1313	98252	1312	57972142
344	1284	3627	69	400	1365	-39	15	139	1314	98351	1313	57972177
316	1118	3787	-9	402	1387	-35	23	139	1315	98402	1314	57972184
385	981	3674	32	429	1377	-35	23	139	1316	98501	1315	57972185
283	1050	3761	48	428	1389	-39	23	143	1317	98552	1316	57972185
300	1188	3795	59	434	1399	-39	23	143	1318	98651	1317	57972185
366	1148	3698	54	433	1421	-40	22	136	1319	98702	1318	57972186
309	1087	3790	18	434	1452	-40	22	136	1320	98801	1319	57972186
412	1298	3828	43	451	1462	-44	20	142	1321	98852	1320	57972217
353	1427	3725	48	462	1488	-44	20	142	1322	98951	1321	57972218
408	1336	3751	-6	480	1520	-48	24	142	1323	99002	1322	57972218
475	1389	3761	2	504	1547	-48	24	142	1324	99101	1323	57972220
435	1507	3705	15	522	1582	-43	23	139	1325	99152	1324	57972220
530	1511	3625	-8	545	1622	-43	23	139	1326	99251	1325	57972224
489	1384	3674	-50	552	1673	-43	23	135	1327	99302	1326	57972224
498	1412	3676	-52	572	1715	-43	23	135	1328	99401	1327	57972226
491	1480	3642	-41	590	1764	-48	16	136	1329	99452	1328	57972227
498	1353	3704	-80	605	1828	-48	16	136	1330	99551	1329	57972228
475	1309	3713	-82	625	1875	-44	28	138	1331	99602	1330	57972264
472	1300	3744	-76	639	1933	-44	28	138	1332	99701	1331	57972265
448	1249	3761	-77	653	1988	-40	24	142	1333	99752	1332	57972266
428	1173	3724	-72	670	2051	-40	24	142	1334	99851	1333	57972267
407	1099	3736	-62	675	2118	-40	26	138	1335	99902	1334	57972268
406	1126	3730	-40	683	2185	-40	26	138	1336	100001	1335	57972271
395	1073	3697	-29	685	2259	-46	24	130	1337	100052	1336	57972271
360	1041	3712	-18	689	2333	-46	24	130	1338	100151	1337	57972273
380	1039	3697	16	700	2415	-41	31	131	1339	100202	1338	57972275
367	1056	3660	41	710	2488	-41	31	131	1340	100301	1339	57972275
379	1045	3657	61	723	2561	-48	26	144	1341	100352	1340	57972289
375	1015	3683	76	740	2639	-48	26	144	1342	100451	1341	57972290
392	996	3726	91	760	2716	-48	26	138	1343	100502	1342	57972323
399	1009	3715	111	783	2789	-48	26	138	1344	100601	1343	57972324
410	1061	3743	121	800	2870	-43	29	135	1345	100652	1344	57972326
448	1081	3777	120	824	2949	-43	29	135	1346	100751	1345	57972327
450	1110	3777	130	839	3028	-50	30	136	1347	100802	1346	57972327
478	1138	3804	131	859	3117	-50	30	136	1348	100901	1347	57972331
502	1249	3733	155	876	3196	-50	30	134	1349	100952	1348	57972331
534	1301	3718	164	897	3280	-50	30	134	1350	101050	1349	57972333
585	1323	3668	160	915	3374	-47	29	133	1351	101102	1350	57972339
602	1366	3660	173	941	3463	-47	29	133	1352	101201	1351	57972339
611	1420	3671	180	966	3550	-46	26	132	1353	101252	1352	57972374
650	1362	3698	170	986	3649	-46	26	132	1354	101350	1353	57972374
670	1428	3609	194	1014	3735	-47	25	135	1355	101402	1354	57972378
645	1417	3513	196	1043	3817	-47	25	135	1356	101501	1355	57972379
619	1376	3612	179	1077	3904	-53	29	139	1357	101552	1356	57972379
625	1415	3700	184	1106	3986	-53	29	139	1358	101651	1357	57972381
574	1431	3677	200	1129	4068	-58	30	130	1359	101702	1358	57972382
573	1397	3770	176	1149	4158	-58	30	130	1360	101801	1359	57972383
563	1394	3775	183	1171	4240	-54	32	132	1361	101852	1360	57972387
574	1470	3685	204	1198	4315	-54	32	132	1362	101951	1361	57972390
544	1486	3628	201	1224	4394	-56	28	132	1363	102002	1362	57972421
558	1447	3622	185	1255	4476	-56	28	132	1364	102101	1363	57972421
577	1479	3604	196	1280	4554	-57	31	129	1365	102152	1364	57972425
535	1525	3591	203	1301	4635	-57	31	129	1366	102251	1365	57972425
521	1511	3625	192	1323	4714	-63	37	129	1367	102302	1366	57972428
503	1484	3657	190	1343	4793	-63	37	129	1368	102401	1367	57972430
450	1550	3666	204	1360	4873	-59	29	127	1369	102452	1368	57972433
461	1556	3660	205	1383	4950	-59	29	127	1370	102551	1369	57972433
435	1510	3659	201	1402	5026	-61	33	129	1371	102602	1370	57972434
451	1540	3633	204	1428	5097	-61	33	129	1372	102701	1371	57972448
457	1522	3608	209	1450	5172	-59	35	131	1373	102752	1372	57972469
477	1498	3581	214	1472	5244	-59	35	131	1374	102851	1373	57972469
495	1520	3594	223	1494	5317	-67	35	131	1375	102902	1374	57972472
474	1539	3612	224	1513	5394	-67	35	131	1376	103001	1375	57972472
492	1517	3626	224	1531	5467	-62	36	126	1377	103052	1376	57972475
491	1447	3647	228	1551	5540	-62	36	126	1378	103151	1377	57972476
487	1492	3656	250	1575	5610	-67	29	125	1379	103202	1378	57972476
489	1543	3628	263	1595	5680	-67	29	125	1380	103300	1379	57972483
481	1496	3625	260	1614	5748	-74	34	126	1381	103351	1380	57972483
488	1493	3594	268	1640	5819	-74	34	126	1382	103450	1381	57972487
461	1538	3573	284	1659	5886	-70	30	128	1383	103501	1382	57972520
470	1597	3579	297	1682	5952	-70	30	128	1384	103600	1383	57972520
446	1603	3583	293	1698	6027	-69	35	127	1385	103651	1384	57972525
386	1636	3628	300	1715	6092	-69	35	127	1386	103750	1385	57972525
388	1694	3620	307	1730	6157	-72	38	124	1387	103801	1386	57972527
388	1727	3620	311	1748	6226	-72	38	124	1388	103900	1387	57972528
375	1746	3597	307	1765	6291	-73	35	123	1389	103951	1388	57972529
367	1787	3575	306	1785	6352	-73	35	123	1390	104050	1389	57972532
365	1824	3567	310	1800	6416	-76	30	124	1391	104101	1390	57972532
344	1882	3534	304	1815	6477	-76	30	124	1392	104200	1391	57972567
348	1872	3518	295	1831	6537	-83	39	127	1393	104251	1392	57972568
349	1893	3534	290	1848	6597	-83	39	127	1394	104350	1393	57972568
327	1931	3537	287	1864	6657	-82	34	122	1395	104401	1394	57972571
342	1918	3559	274	1882	6712	-82	34	122	1396	104500	1395	57972571
338	1896	3590	270	1896	6770	-84	38	116	1397	104551	1396	57972574
356	1914	3579	268	1913	6823	-84	38	116	1398	104650	1397	57972575
378	1892	3564	267	1933	6874	-86	36	116	1399	104701	1398	57972577
359	1870	3543	261	1954	6932	-86	36	116	1400	104800	1399	57972582
393	1863	3581	261	1972	6987	-90	28	118	1401	104851	1400	57972583
391	1854	3541	264	1994	7039	-90	28	118	1402	104950	1401	57972592
391	1810	3528	268	2012	7096	-85	33	119	1403	105001	1402	57972592
397	1798	3515	275	2030	7155	-85	33	119	1404	105100	1403	57972596
360	1760	3531	276	2048	7213	-92	26	118	1405	105151	1404	57972630
368	1717	3544	287	2067	7271	-92	26	118	1406	105250	1405	57972638
342	1685	3546	302	2082	7334	-92	32	122	1407	105301	1406	57972638
313	1666	3564	307	2095	7397	-92	32	122	1408	105399	1407	57972638
253	1679	3542	327	2104	7452	-96	32	112	1409	105451	1408	57972639
243	1729	3575	343	2118	7510	-96	32	112	1410	105549	1409	57972639
202	1718	3595	353	2129	7565	-107	27	115	1411	105601	1410	57972639
198	1700	3574	372	2140	7618	-107	27	115	1412	105700	1411	57972641
181	1733	3577	388	2148	7671	-105	29	107	1413	105751	1412	57972641
184	1749	3557	399	2156	7719	-105	29	107	1414	105850	1413	57972646
180	1781	3524	410	2164	7764	-106	28	108	1415	105901	1414	57972680
170	1837	3529	417	2167	7811	-106	28	108	1416	106000	1415	57972684
147	1915	3539	427	2173	7849	-106	30	110	1417	106051	1416	57972687
146	1946	3552	432	2179	7887	-106	30	110	1418	106150	1417	57972687
131	1983	3551	440	2178	7921	-103	29	107	1419	106201	1418	57972688
111	1993	3510	445	2180	7946	-103	29	107	1420	106299	1419	57972689
64	2062	3513	448	2182	7965	-109	25	109	1421	106350	1420	57972689
78	2039	3509	434	2183	7987	-109	25	109	1422	106449	1421	57972691
86	2013	3555	416	2187	7995	-109	23	111	1423	106500	1422	57972692
47	2051	3518	414	2187	7998	-109	23	111	1424	106599	1423	57972702
77	2073	3505	413	2194	7997	-106	10	110	1425	106650	1424	57972703
64	2018	3517	399	2195	7990	-106	10	110	1426	106749	1425	57972707
84	1976	3504	394	2200	7975	-110	22	106	1427	106800	1426	57972739
126	1968	3470	401	2204	7957	-110	22	106	1428	106899	1427	57972739
144	1981	3517	386	2214	7935	-118	14	110	1429	106950	1428	57972742
190	1985	3546	382	2222	7909	-118	14	110	1430	107049	1429	57972742
199	1978	3554	381	2229	7885	-123	11	101	1431	107100	1430	57972745
193	1970	3541	365	2235	7866	-123	11	101	1432	107199	1431	57972746
205	1967	3522	368	2236	7841	-121	9	99	1433	107250	1432	57972746
188	1999	3492	373	2241	7820	-121	9	99	1434	107349	1433	57972751
178	1947	3495	365	2243	7801	-119	5	99	1435	107400	1434	57972752
156	1933	3481	365	2239	7781	-119	5	99	1436	107499	1435	57972755
109	1914	3477	368	2241	7764	-117	5	99	1437	107550	1436	57972787
85	1914	3497	365	2243	7749	-117	5	99	1438	107649	1437	57972789
47	1891	3547	364	2246	7727	-125	7	101	1439	107700	1438	57972791
33	1904	3559	363	2249	7711	-125	7	101	1440	107799	1439	57972792
-4	1916	3569	361	2249	7698	-126	4	96	1441	107850	1440	57972794
-34	1912	3561	362	2245	7688	-126	4	96	1442	107949	1441	57972795
-28	1916	3569	360	2234	7682	-128	2	98	1443	108000	1442	57972795
-56	1924	3562	362	2225	7678	-128	2	98	1444	108099	1443	57972800
-84	1946	3552	366	2210	7673	-127	-1	99	1445	108150	1444	57972800
-99	1952	3510	361	2196	7671	-127	-1	99	1446	108249	1445	57972806
-144	1928	3533	362	2184	7670	-126	-2	100	1447	108300	1446	57972856
-141	1939	3527	359	2176	7662	-126	-2	100	1448	108399	1447	57972857
-113	1937	3522	358	2168	7656	-125	-7	101	1449	108450	1448	57972860
-99	1908	3548	355	2162	7652	-125	-7	101	1450	108549	1449	57972860
-72	1915	3584	352	2157	7644	-134	-4	98	1451	108600	1450	57972862
-37	1922	3580	349	2151	7636	-134	-4	98	1452	108699	1451	57972863
6	1915	3585	350	2141	7629	-132	-6	96	1453	108750	1452	57972864
10	1913	3540	350	2131	7620	-132	-6	96	1454	108849	1453	57972867
32	1874	3541	348	2124	7606	-131	-11	97	1455	108900	1454	57972867
61	1873	3529	344	2122	7596	-131	-11	97	1456	108999	1455	57972871
60	1850	3543	344	2124	7579	-132	-20	102	1457	109050	1456	57972871
121	1858	3502	342	2124	7562	-132	-20	102	1458	109149	1457	57972873
120	1837	3519	347	2125	7545	-131	-15	95	1459	109200	1458	57972874
136	1825	3557	345	2129	7524	-131	-15	95	1460	109299	1459	57972875
140	1827	3580	347	2129	7506	-129	-17	99	1461	109350	1460	57972910
135	1827	3545	347	2132	7491	-129	-17	99	1462	109449	1461	57972910
127	1821	3547	349	2126	7470	-126	-22	100	1463	109500	1462	57972913
104	1820	3561	349	2126	7453	-126	-22	100	1464	109599	1463	57972914
78	1821	3555	350	2128	7439	-132	-22	96	1465	109650	1464	57972914
74	1828	3561	355	2130	7422	-132	-22	96	1466	109749	1465	57972917
50	1837	3542	356	2126	7402	-128	-28	102	1467	109800	1466	57972918
36	1857	3533	355	2125	7392	-128	-28	102	1468	109899	1467	57972920
19	1852	3551	349	2117	7380	-125	-33	99	1469	109950	1468	57972926
12	1870	3577	348	2112	7365	-125	-33	99	1470	110049	1469	57972926
6	1876	3565	349	2104	7357	-126	-32	104	1471	110100	1470	57972936
8	1883	3566	349	2098	7347	-126	-32	104	1472	110199	1471	57972936
-10	1899	3569	345	2093	7333	-125	-31	101	1473	110250	1472	57972940
-21	1869	3549	342	2088	7321	-125	-31	101	1474	110349	1473	57972974
-24	1896	3561	343	2078	7315	-124	-36	98	1475	110400	1474	57972978
-4	1880	3559	338	2072	7299	-124	-36	98	1476	110499	1475	57972978
-13	1864	3566	334	2067	7290	-125	-35	99	1477	110550	1476	57972978
-1	1864	3568	327	2063	7278	-125	-35	99	1478	110649	1477	57972980
25	1864	3564	329	2057	7265	-116	-38	94	1479	110700	1478	57972981
40	1837	3538	325	2050	7256	-116	-38	94	1480	110799	1479	57972981
44	1814	3574	326	2045	7245	-121	-37	103	1481	110850	1480	57972986
53	1809	3554	321	2044	7232	-121	-37	103	1482	110949	1481	57972986
66	1791	3564	319	2037	7215	-119	-45	105	1483	111000	1482	57972989
63	1769	3557	321	2037	7203	-119	-45	105	1484	111099	1483	57973022
89	1755	3567	324	2035	7185	-120	-46	106	1485	111150	1484	57973023
87	1763	3568	324	2034	7172	-120	-46	106	1486	111249	1485	57973026
94	1747	3570	327	2028	7158	-122	-46	104	1487	111300	1486	57973029
108	1746	3570	326	2027	7145	-122	-46	104	1488	111399	1487	57973030
113	1736	3564	327	2024	7129	-119	-49	103	1489	111450	1488	57973030
79	1750	3573	331	2022	7115	-119	-49	103	1490	111549	1489	57973032
85	1752	3561	332	2021	7100	-108	-50	98	1491	111600	1490	57973033
60	1758	3579	333	2018	7084	-108	-50	98	1492	111699	1491	57973034
93	1778	3565	335	2017	7071	-114	-50	104	1493	111750	1492	57973070
67	1770	3593	333	2014	7055	-114	-50	104	1494	111849	1493	57973070
72	1788	3565	336	2010	7042	-112	-54	104	1495	111900	1494	57973072
74	1775	3588	331	2006	7029	-112	-54	104	1496	111999	1495	57973073
67	1793	3584	331	2001	7012	-113	-51	103	1497	112050	1496	57973073
71	1800	3592	327	1995	7000	-113	-51	103	1498	112149	1497	57973077
69	1791	3574	325	1989	6990	-109	-55	105	1499	112200	1498	57973078
79	1793	3574	321	1989	6974	-109	-55	105	1500	112299	1499	57973080
71	1805	3567	322	1989	6959	-108	-56	104	1501	112350	1500	57973085
75	1793	3579	318	1983	6948	-108	-56	104	1502	112449	1501	57973085
68	1772	3589	314	1981	6937	-102	-60	108	1503	112500	1502	57973097
68	1783	3559	312	1978	6924	-102	-60	108	1504	112599	1503	57973097
72	1772	3564	309	1975	6911	-107	-63	103	1505	112650	1504	57973098
53	1756	3591	309	1971	6902	-107	-63	103	1506	112749	1505	57973131
77	1752	3577	307	1969	6883	-104	-62	110	1507	112800	1506	57973131
78	1740	3592	301	1966	6872	-104	-62	110	1508	112899	1507	57973135
84	1742	3578	300	1966	6858	-105	-59	113	1509	112950	1508	57973135
77	1733	3589	299	1965	6843	-105	-59	113	1510	113049	1509	57973137
93	1723	3586	301	1959	6833	-100	-58	106	1511	113100	1510	57973139
97	1715	3591	297	1960	6820	-100	-58	106	1512	113199	1511	57973139
103	1718	3603	301	1958	6805	-98	-64	110	1513	113250	1512	57973144
80	1715	3581	302	1955	6796	-98	-64	110	1514	113349	1513	57973144
101	1689	3592	302	1952	6783	-93	-63	113	1515	113400	1514	57973146
88	1697	3588	297	1949	6766	-93	-63	113	1516	113499	1515	57973179
108	1704	3610	302	1947	6756	-93	-67	115	1517	113550	1516	57973179
99	1695	3603	303	1947	6744	-93	-67	115	1518	113649	1517	57973182
88	1697	3608	303	1947	6727	-95	-65	113	1519	113700	1518	57973183
102	1699	3611	304	1943	6718	-95	-65	113	1520	113799	1519	57973186
93	1711	3593	301	1938	6707	-91	-69	109	1521	113850	1520	57973187
87	1714	3626	302	1935	6692	-91	-69	109	1522	113949	1521	57973189
93	1696	3606	302	1933	6681	-90	-72	112	1523	114000	1522	57973195
95	1700	3604	300	1935	6671	-90	-72	112	1524	114099	1523	57973196
84	1708	3620	300	1930	6657	-90	-68	120	1525	114150	1524	57973204
83	1698	3613	296	1926	6646	-90	-68	120	1526	114249	1525	57973205
89	1713	3594	297	1921	6635	-86	-68	116	1527	114300	1526	57973208
82	1722	3598	293	1922	6622	-86	-68	116	1528	114399	1527	57973243
88	1711	3633	295	1917	6610	-83	-69	115	1529	114450	1528	57973243
83	1719	3599	291	1915	6600	-83	-69	115	1530	114549	1529	57973246
82	1703	3588	291	1910	6590	-84	-74	120	1531	114600	1530	57973250
85	1693	3595	288	1907	6578	-84	-74	120	1532	114699	1531	57973251
70	1699	3612	286	1903	6568	-81	-69	117	1533	114750	1532	57973252
93	1679	3592	286	1898	6559	-81	-69	117	1534	114849	1533	57973252
98	1690	3593	285	1895	6543	-83	-63	115	1535	114900	1534	57973254
79	1671	3600	282	1891	6532	-83	-63	115	1536	114999	1535	57973254
81	1686	3604	284	1889	6522	-78	-74	120	1537	115050	1536	57973258
76	1675	3608	282	1882	6513	-78	-74	120	1538	115149	1537	57973291
68	1664	3614	283	1882	6503	-80	-70	122	1539	115200	1538	57973292
62	1650	3608	282	1880	6490	-80	-70	122	1540	115299	1539	57973295
77	1667	3623	282	1872	6477	-73	-73	125	1541	115350	1540	57973297
74	1636	3604	282	1870	6470	-73	-73	125	1542	115449	1541	57973297
64	1633	3615	282	1866	6458	-70	-70	122	1543	115500	1542	57973298
67	1650	3589	283	1863	6445	-70	-70	122	1544	115599	1543	57973300
74	1628	3616	286	1860	6436	-72	-68	128	1545	115650	1544	57973302
70	1632	3624	284	1855	6426	-72	-68	128	1546	115749	1545	57973303
55	1635	3618	283	1846	6414	-71	-69	125	1547	115800	1546	57973338
59	1641	3626	282	1845	6404	-71	-69	125	1548	115899	1547	57973339
60	1638	3623	285	1838	6395	-67	-69	131	1549	115950	1548	57973339
66	1631	3624	283	1833	6385	-67	-69	131	1550	116049	1549	57973342
65	1643	3617	286	1828	6377	-62	-66	122	1551	116100	1550	57973342
52	1623	3632	285	1822	6367	-62	-66	122	1552	116199	1551	57973346
57	1632	3621	284	1816	6355	-66	-68	124	1553	116250	1552	57973346
56	1616	3612	287	1812	6348	-66	-68	124	1554	116349	1553	57973348
49	1622	3650	287	1806	6338	-62	-66	126	1555	116400	1554	57973353
38	1609	3621	284	1800	6326	-62	-66	126	1556	116499	1555	57973358
28	1624	3624	287	1795	6316	-54	-72	130	1557	116550	1556	57973368
39	1633	3635	284	1792	6304	-54	-72	130	1558	116649	1557	57973374
34	1625	3627	284	1783	6293	-54	-68	132	1559	116700	1558	57973375
52	1621	3637	285	1779	6284	-54	-68	132	1560	116799	1559	57973400
60	1633	3596	283	1777	6273	-60	-70	132	1561	116850	1560	57973400
75	1624	3595	282	1772	6260	-60	-70	132	1562	116949	1561	57973403
76	1607	3646	281	1770	6247	-59	-67	125	1563	117000	1562	57973404
87	1615	3606	280	1762	6234	-59	-67	125	1564	117099	1563	57973406
76	1619	3630	278	1759	6219	-51	-67	127	1565	117150	1564	57973407
67	1599	3638	278	1757	6207	-51	-67	127	1566	117249	1565	57973407
92	1604	3637	278	1750	6198	-53	-63	131	1567	117300	1566	57973412
87	1588	3625	275	1751	6183	-53	-63	131	1568	117399	1567	57973413
76	1597	3646	280	1749	6169	-51	-61	133	1569	117450	1568	57973416
89	1601	3634	277	1745	6154	-51	-61	133	1570	117549	1569	57973448
95	1589	3638	277	1741	6141	-49	-63	135	1571	117600	1570	57973449
79	1596	3620	275	1737	6126	-49	-63	135	1572	117699	1571	57973458
91	1573	3629	277	1734	6115	-48	-58	132	1573	117750	1572	57973461
106	1580	3623	273	1731	6099	-48	-58	132	1574	117849	1573	57973461
89	1570	3653	275	1728	6083	-48	-62	138	1575	117900	1574	57973461
105	1573	3644	272	1722	6073	-48	-62	138	1576	117999	1575	57973462
97	1582	3607	271	1721	6060	-44	-64	136	1577	118050	1576	57973465
88	1577	3617	271	1719	6045	-44	-64	136	1578	118148	1577	57973467
89	1566	3634	271	1713	6031	-38	-62	142	1579	118200	1578	57973497
101	1575	3643	271	1710	6019	-38	-62	142	1580	118299	1579	57973498
82	1567	3637	269	1705	6005	-42	-66	140	1581	118350	1580	57973499
72	1554	3647	271	1701	5996	-42	-66	140	1582	118449	1581	57973500
65	1563	3643	269	1697	5982	-40	-52	138	1583	118500	1582	57973501
72	1567	3642	269	1695	5965	-40	-52	138	1584	118599	1583	57973510
77	1562	3630	268	1693	5957	-39	-57	139	1585	118650	1584	57973514
88	1557	3648	266	1683	5943	-39	-57	139	1586	118749	1585	57973517
55	1557	3655	268	1676	5929	-39	-57	141	1587	118800	1586	57973517
80	1557	3647	267	1676	5919	-39	-57	141	1588	118899	1587	57973518
77	1569	3659	267	1671	5906	-36	-54	142	1589	118950	1588	57973547
80	1562	3632	264	1669	5892	-36	-54	142	1590	119049	1589	57973548
89	1555	3633	267	1664	5879	-37	-57	139	1591	119100	1590	57973550
75	1553	3651	263	1660	5869	-37	-57	139	1592	119199	1591	57973554
65	1553	3657	265	1654	5856	-34	-56	138	1593	119250	1592	57973554
60	1556	3664	261	1651	5844	-34	-56	138	1594	119349	1593	57973557
73	1543	3640	259	1649	5831	-35	-49	139	1595	119400	1594	57973557
72	1530	3647	259	1643	5816	-35	-49	139	1596	119499	1595	57973560
92	1522	3657	260	1637	5804	-34	-52	140	1597	119550	1596	57973563
79	1541	3652	258	1638	5794	-34	-52	140	1598	119649	1597	57973563
65	1532	3655	261	1632	5779	-27	-51	141	1599	119700	1598	57973596
76	1525	3633	259	1628	5766	-27	-51	141	1600	119799	1599	57973596
74	1510	3655	259	1623	5756	-31	-47	149	1601	119850	1600	57973598
66	1527	3660	257	1621	5741	-31	-47	149	1602	119949	1601	57973600
70	1520	3649	257	1615	5726	-33	-47	143	1603	120000	1602	57973600
80	1528	3666	254	1612	5717	-33	-47	143	1604	120098	1603	57973603
84	1524	3638	254	1608	5701	-27	-43	143	1605	120150	1604	57973604
75	1508	3640	252	1606	5687	-27	-43	143	1606	120249	1605	57973607
80	1510	3648	252	1599	5678	-29	-45	147	1607	120300	1606	57973607
77	1510	3663	253	1598	5663	-29	-45	147	1608	120399	1607	57973611
97	1518	3655	255	1594	5650	-25	-49	149	1609	120450	1608	57973644
69	1520	3655	256	1590	5636	-25	-49	149	1610	120549	1609	57973644
95	1512	3646	253	1585	5624	-24	-44	142	1611	120600	1610	57973648
79	1504	3665	250	1582	5606	-24	-44	142	1612	120699	1611	57973649
71	1498	3648	251	1577	5595	-29	-41	145	1613	120750	1612	57973649
78	1504	3675	251	1574	5582	-29	-41	145	1614	120849	1613	57973651
74	1508	3657	248	1569	5566	-26	-44	146	1615	120900	1614	57973651
60	1507	3661	248	1564	5557	-26	-44	146	1616	120999	1615	57973656
83	1490	3646	246	1561	5545	-23	-41	147	1617	121050	1616	57973657
84	1483	3652	246	1558	5528	-23	-41	147	1618	121149	1617	57973660
70	1495	3663	249	1554	5518	-21	-43	147	1619	121200	1618	57973692
77	1500	3647	246	1550	5504	-21	-43	147	1620	121299	1619	57973693
77	1498	3664	244	1547	5487	-25	-35	149	1621	121350	1620	57973697
87	1494	3667	244	1545	5476	-25	-35	149	1622	121449	1621	57973698
60	1478	3652	244	1539	5464	-25	-37	145	1623	121500	1622	57973699
92	1493	3660	242	1533	5449	-25	-37	145	1624	121598	1623	57973700
85	1486	3665	239	1531	5436	-27	-37	149	1625	121649	1624	57973700
88	1482	3648	238	1525	5424	-27	-37	149	1626	121748	1625	57973707
73	1484	3680	241	1521	5405	-25	-35	147	1627	121799	1626	57973708
83	1486	3664	239	1519	5397	-25	-35	147	1628	121898	1627	57973711
79	1475	3700	238	1515	5385	-20	-34	152	1629	121949	1628	57973743
98	1473	3675	236	1514	5368	-20	-34	152	1630	122048	1629	57973744
83	1473	3656	236	1508	5357	-27	-31	145	1631	122098	1630	57973747
82	1449	3681	234	1504	5347	-27	-31	145	1632	122197	1631	57973747
86	1478	3692	236	1501	5331	-29	-33	143	1633	122248	1632	57973750
86	1474	3679	235	1497	5317	-29	-33	143	1634	122346	1633	57973751
97	1462	3676	237	1494	5305	-24	-24	148	1635	122398	1634	57973751
81	1440	3670	234	1488	5287	-24	-24	148	1636	122497	1635	57973755
85	1478	3649	233	1482	5278	-23	-29	141	1637	122548	1636	57973756
100	1460	3681	231	1480	5266	-23	-29	141	1638	122647	1637	57973790
90	1450	3670	231	1477	5252	-18	-24	150	1639	122698	1638	57973790
83	1445	3672	230	1475	5236	-18	-24	150	1640	122797	1639	57973792
96	1465	3664	231	1470	5228	-20	-24	150	1641	122848	1640	57973794
97	1455	3688	230	1468	5212	-20	-24	150	1642	122947	1641	57973794
80	1457	3680	227	1464	5200	-24	-18	146	1643	122998	1642	57973797
101	1459	3652	226	1459	5188	-24	-18	146	1644	123097	1643	57973798
100	1447	3667	228	1454	5176	-26	-18	142	1645	123148	1644	57973800
95	1443	3672	226	1452	5162	-26	-18	142	1646	123247	1645	57973806
98	1445	3701	227	1448	5149	-19	-21	145	1647	123298	1646	57973806
88	1448	3671	225	1442	5135	-19	-21	145	1648	123397	1647	57973816
90	1444	3674	225	1439	5122	-20	-20	146	1649	123448	1648	57973816
98	1456	3669	224	1435	5111	-20	-20	146	1650	123547	1649	57973819
97	1433	3669	222	1433	5099	-26	-16	146	1651	123598	1650	57973854
88	1432	3669	221	1430	5084	-26	-16	146	1652	123697	1651	57973858
98	1432	3667	224	1426	5073	-15	-15	143	1653	123748	1652	57973858
99	1435	3680	220	1421	5064	-15	-15	143	1654	123847	1653	57973859
101	1440	3658	222	1418	5048	-23	-11	143	1655	123898	1654	57973860
86	1425	3685	220	1417	5036	-23	-11	143	1656	123997	1655	57973861
94	1426	3674	219	1410	5025	-21	-9	149	1657	124048	1656	57973862
96	1437	3702	218	1408	5010	-21	-9	149	1658	124147	1657	57973869
84	1440	3691	217	1402	4996	-23	-9	147	1659	124198	1658	57973869
97	1422	3664	218	1399	4985	-23	-9	147	1660	124297	1659	57973870
101	1422	3691	217	1396	4973	-19	-5	149	1661	124348	1660	57973903
74	1431	3670	216	1394	4962	-19	-5	149	1662	124447	1661	57973903
85	1417	3681	219	1389	4948	-23	-7	149	1663	124498	1662	57973907
107	1425	3681	214	1388	4936	-23	-7	149	1664	124597	1663	57973908
98	1412	3674	214	1380	4925	-28	2	144	1665	124648	1664	57973910
102	1421	3695	215	1380	4911	-28	2	144	1666	124747	1665	57973910
106	1414	3689	216	1375	4900	-22	2	144	1667	124798	1666	57973913
90	1423	3681	214	1373	4886	-22	2	144	1668	124897	1667	57973914
88	1393	3688	214	1370	4875	-23	-1	153	1669	124948	1668	57973914
91	1409	3669	209	1367	4862	-23	-1	153	1670	125047	1669	57973950
102	1423	3691	212	1364	4847	-22	-6	144	1671	125098	1670	57973950
101	1415	3673	210	1358	4841	-22	-6	144	1672	125197	1671	57973952
108	1421	3673	212	1354	4826	-23	-1	149	1673	125248	1672	57973953
98	1405	3698	207	1351	4815	-23	-1	149	1674	125347	1673	57973954
92	1395	3689	210	1348	4804	-28	0	142	1675	125398	1674	57973957
112	1412	3689	208	1341	4792	-28	0	142	1676	125497	1675	57973957
127	1410	3662	205	1339	4778	-27	3	135	1677	125548	1676	57973960
110	1413	3684	206	1339	4768	-27	3	135	1678	125647	1677	57973965
125	1400	3685	206	1333	4756	-31	5	145	1679	125698	1678	57973969
105	1404	3681	207	1331	4740	-31	5	145	1680	125797	1679	57973976
99	1397	3702	204	1328	4732	-25	7	149	1681	125848	1680	57973979
104	1395	3680	201	1326	4721	-25	7	149	1682	125947	1681	57973980
100	1404	3687	203	1322	4707	-22	2	148	1683	125998	1682	57974012
115	1406	3685	201	1320	4699	-22	2	148	1684	126097	1683	57974013
99	1395	3670	200	1315	4687	-33	5	147	1685	126148	1684	57974016
112	1386	3693	201	1311	4674	-33	5	147	1686	126247	1685	57974016
109	1379	3688	199	1306	4667	-37	9	145	1687	126298	1686	57974019
114	1396	3685	201	1303	4653	-37	9	145	1688	126397	1687	57974020
105	1382	3688	200	1301	4640	-31	11	145	1689	126448	1688	57974021
90	1384	3686	198	1302	4632	-31	11	145	1690	126547	1689	57974024
87	1394	3704	201	1298	4620	-28	8	142	1691	126598	1690	57974024
124	1370	3693	194	1294	4609	-28	8	142	1692	126697	1691	57974030
119	1378	3675	198	1292	4598	-30	12	144	1693	126748	1692	57974062
115	1378	3689	196	1289	4583	-30	12	144	1694	126847	1693	57974063
121	1379	3696	196	1282	4575	-36	12	146	1695	126898	1694	57974066
117	1379	3697	198	1281	4562	-36	12	146	1696	126997	1695	57974066
119	1378	3692	196	1278	4552	-36	18	138	1697	127048	1696	57974069
115	1381	3703	196	1275	4539	-36	18	138	1698	127147	1697	57974070
113	1389	3693	198	1270	4532	-29	15	139	1699	127198	1698	57974072
106	1360	3695	195	1269	4522	-29	15	139	1700	127297	1699	57974073
109	1372	3694	195	1264	4508	-34	18	142	1701	127348	1700	57974073
91	1370	3685	192	1262	4498	-34	18	142	1702	127447	1701	57974109
114	1376	3696	194	1259	4488	-36	10	148	1703	127498	1702	57974112
134	1374	3685	188	1258	4474	-36	10	148	1704	127597	1703	57974113
111	1367	3700	189	1253	4464	-41	25	143	1705	127648	1704	57974137
106	1353	3699	186	1250	4455	-41	25	143	1706	127747	1705	57974138
115	1366	3735	189	1248	4443	-39	21	139	1707	127798	1706	57974141
124	1365	3711	187	1245	4429	-39	21	139	1708	127897	1707	57974141
126	1371	3691	188	1244	4423	-44	18	138	1709	127948	1708	57974143
124	1354	3679	186	1243	4410	-44	18	138	1710	128047	1709	57974147
113	1344	3691	185	1239	4397	-42	26	136	1711	128098	1710	57974148
114	1370	3707	184	1236	4390	-42	26	136	1712	128197	1711	57974149
135	1362	3708	184	1236	4376	-44	22	140	1713	128248	1712	57974150
146	1369	3688	183	1233	4364	-44	22	140	1714	128347	1713	57974151
126	1353	3696	183	1230	4357	-46	24	134	1715	128398	1714	57974159
119	1344	3691	183	1228	4346	-46	24	134	1716	128497	1715	57974161
138	1350	3708	180	1226	4335	-43	23	135	1717	128548	1716	57974163
122	1352	3713	180	1223	4327	-43	23	135	1718	128647	1717	57974164
131	1359	3701	180	1218	4314	-42	26	140	1719	128698	1718	57974178
132	1352	3682	179	1216	4304	-42	26	140	1720	128797	1719	57974178
124	1367	3679	179	1214	4297	-48	28	136	1721	128848	1720	57974178
118	1347	3706	178	1212	4286	-48	28	136	1722	128947	1721	57974206
126	1347	3704	179	1209	4275	-48	28	138	1723	128998	1722	57974206
132	1349	3713	179	1206	4266	-48	28	138	1724	129097	1723	57974209
136	1362	3683	178	1204	4256	-45	23	137	1725	129148	1724	57974210
133	1333	3695	177	1203	4246	-45	23	137	1726	129247	1725	57974212
132	1339	3706	179	1199	4239	-47	25	131	1727	129298	1726	57974213
117	1345	3727	177	1194	4228	-47	25	131	1728	129397	1727	57974214
132	1325	3714	177	1192	4216	-49	27	133	1729	129448	1728	57974217
127	1344	3713	177	1192	4209	-49	27	133	1730	129547	1729	57974217
128	1330	3708	176	1188	4199	-48	26	132	1731	129598	1730	57974252
132	1340	3702	175	1187	4189	-48	26	132	1732	129697	1731	57974253
119	1340	3694	176	1184	4180	-56	28	134	1733	129748	1732	57974257
117	1347	3701	173	1181	4174	-56	28	134	1734	129847	1733	57974258
114	1335	3703	174	1178	4163	-53	33	133	1735	129898	1734	57974258
132	1336	3703	174	1176	4152	-53	33	133	1736	129997	1735	57974259
120	1339	3719	175	1173	4147	-57	29	131	1737	130048	1736	57974260
138	1324	3686	172	1171	4135	-57	29	131	1738	130147	1737	57974263
127	1349	3692	174	1170	4128	-55	31	127	1739	130198	1738	57974266
110	1336	3687	173	1165	4119	-55	31	127	1740	130297	1739	57974267
117	1322	3703	174	1160	4111	-56	28	134	1741	130348	1740	57974300
125	1341	3718	172	1162	4101	-56	28	134	1742	130447	1741	57974302
139	1343	3709	173	1157	4093	-59	31	131	1743	130498	1742	57974304
109	1337	3696	169	1157	4083	-59	31	131	1744	130597	1743	57974304
130	1315	3704	169	1153	4075	-60	34	130	1745	130648	1744	57974309
118	1337	3692	169	1154	4065	-60	34	130	1746	130747	1745	57974311
138	1324	3711	168	1150	4058	-63	31	127	1747	130798	1746	57974314
138	1350	3683	169	1149	4048	-63	31	127	1748	130897	1747	57974319
136	1329	3692	169	1145	4041	-64	26	130	1749	130948	1748	57974319
132	1316	3681	167	1144	4030	-64	26	130	1750	131047	1749	57974319
128	1329	3711	169	1144	4019	-60	30	134	1751	131098	1750	57974348
137	1309	3720	164	1142	4014	-60	30	134	1752	131197	1751	57974349
148	1335	3707	166	1137	4003	-58	34	128	1753	131248	1752	57974352
124	1321	3693	165	1141	3993	-58	34	128	1754	131347	1753	57974352
142	1334	3714	165	1136	3988	-69	35	123	1755	131398	1754	57974355
125	1321	3714	167	1132	3975	-69	35	123	1756	131497	1755	57974356
143	1327	3704	167	1132	3967	-68	38	126	1757	131548	1756	57974356
111	1324	3706	164	1132	3961	-68	38	126	1758	131647	1757	57974364
142	1319	3715	164	1128	3949	-68	32	130	1759	131698	1758	57974365
138	1323	3715	163	1127	3938	-68	32	130	1760	131797	1759	57974373
119	1329	3711	162	1124	3936	-65	31	131	1761	131848	1760	57974374
129	1318	3704	161	1125	3923	-65	31	131	1762	131947	1761	57974378
131	1322	3690	163	1122	3916	-65	33	129	1763	131998	1762	57974411
112	1336	3724	160	1120	3909	-65	33	129	1764	132097	1763	57974411
117	1319	3725	163	1118	3903	-70	28	126	1765	132148	1764	57974415
130	1329	3709	163	1117	3892	-70	28	126	1766	132247	1765	57974415
132	1332	3701	160	1113	3885	-75	39	123	1767	132298	1766	57974417
127	1318	3719	159	1110	3877	-75	39	123	1768	132397	1767	57974419
123	1313	3730	158	1105	3867	-68	30	122	1769	132448	1768	57974419
122	1319	3713	160	1103	3862	-68	30	122	1770	132547	1769	57974422
114	1324	3708	158	1100	3856	-72	28	124	1771	132598	1770	57974423
112	1320	3716	160	1098	3847	-72	28	124	1772	132697	1771	57974427
109	1312	3702	160	1093	3842	-73	33	127	1773	132748	1772	57974460
114	1308	3724	156	1090	3838	-73	33	127	1774	132847	1773	57974460
127	1311	3696	159	1089	3826	-77	29	127	1775	132898	1774	57974463
123	1302	3727	155	1087	3820	-77	29	127	1776	132997	1775	57974464
127	1314	3703	157	1084	3814	-83	41	123	1777	133048	1776	57974466
105	1314	3703	155	1082	3806	-83	41	123	1778	133147	1777	57974467
106	1313	3703	157	1077	3800	-81	35	123	1779	133198	1778	57974468
100	1312	3715	154	1071	3795	-81	35	123	1780	133297	1779	57974471
105	1320	3713	156	1069	3785	-79	31	119	1781	133348	1780	57974471
109	1306	3702	156	1070	3779	-79	31	119	1782	133447	1781	57974478
123	1291	3705	157	1066	3772	-80	30	122	1783	133498	1782	57974487
112	1304	3695	154	1062	3766	-80	30	122	1784	133597	1783	57974488
136	1308	3715	156	1058	3759	-83	31	123	1785	133648	1784	57974498
128	1308	3708	152	1056	3756	-83	31	123	1786	133747	1785	57974498
119	1298	3696	154	1052	3746	-79	37	123	1787	133798	1786	57974509
128	1299	3708	155	1048	3740	-79	37	123	1788	133897	1787	57974509
125	1302	3720	156	1046	3736	-81	33	115	1789	133948	1788	57974512
141	1300	3712	150	1046	3726	-81	33	115	1790	134047	1789	57974547
143	1305	3719	152	1041	3717	-85	37	121	1791	134097	1790	57974549
124	1297	3729	152	1039	3715	-85	37	121	1792	134196	1791	57974550
127	1318	3721	151	1036	3702	-87	27	117	1793	134247	1792	57974552
123	1304	3724	151	1034	3695	-87	27	117	1794	134346	1793	57974554
120	1307	3728	150	1032	3691	-93	37	119	1795	134397	1794	57974556
145	1325	3713	147	1032	3681	-93	37	119	1796	134496	1795	57974557
146	1287	3725	148	1028	3674	-98	36	106	1797	134547	1796	57974558
125	1290	3713	148	1025	3670	-98	36	106	1798	134646	1797	57974559
117	1293	3717	147	1024	3660	-94	28	120	1799	134697	1798	57974561
138	1293	3709	148	1022	3651	-94	28	120	1800	134796	1799	57974594
163	1290	3700	148	1022	3644	-90	30	120	1801	134847	1800	57974594
131	1296	3715	148	1021	3638	-90	30	120	1802	134946	1801	57974597
131	1284	3720	148	1016	3630	-92	32	112	1803	134997	1802	57974597
126	1279	3697	147	1016	3624	-92	32	112	1804	135096	1803	57974600
131	1295	3705	148	1014	3615	-95	33	119	1805	135147	1804	57974601
138	1294	3699	147	1013	3604	-95	33	119	1806	135246	1805	57974601
137	1292	3708	149	1009	3601	-99	31	111	1807	135297	1806	57974606
138	1289	3697	147	1009	3594	-99	31	111	1808	135396	1807	57974606
150	1279	3715	149	1006	3584	-93	31	117	1809	135447	1808	57974609
127	1294	3717	147	1004	3578	-93	31	117	1810	135546	1809	57974643
118	1288	3724	147	1003	3572	-98	34	124	1811	135597	1810	57974643
125	1281	3728	145	1000	3562	-98	34	124	1812	135696	1811	57974648
132	1296	3715	147	996	3556	-95	33	113	1813	135747	1812	57974649
133	1297	3696	145	995	3551	-95	33	113	1814	135846	1813	57974650
138	1308	3718	144	992	3540	-101	29	113	1815	135897	1814	57974650
140	1316	3709	142	991	3536	-101	29	113	1816	135996	1815	57974652
129	1291	3735	144	989	3530	-98	32	110	1817	136047	1816	57974657
128	1297	3715	142	988	3521	-98	32	110	1818	136146	1817	57974658
133	1289	3727	144	982	3515	-98	28	114	1819	136197	1818	57974667
120	1295	3701	145	979	3508	-98	28	114	1820	136296	1819	57974668
127	1286	3724	142	978	3500	-101	33	111	1821	136347	1820	57974671
150	1289	3699	142	976	3492	-101	33	111	1822	136446	1821	57974707
134	1284	3722	141	974	3487	-103	29	109	1823	136497	1822	57974708
134	1284	3710	139	972	3479	-103	29	109	1824	136596	1823	57974709
133	1288	3703	140	969	3473	-105	27	111	1825	136647	1824	57974709
141	1296	3704	140	968	3465	-105	27	111	1826	136746	1825	57974712
149	1276	3705	141	963	3460	-99	23	109	1827	136797	1826	57974713
130	1294	3720	140	963	3452	-99	23	109	1828	136896	1827	57974713
122	1274	3701	141	960	3447	-107	25	107	1829	136947	1828	57974716
160	1286	3701	137	960	3441	-107	25	107	1830	137046	1829	57974717
138	1288	3716	139	957	3429	-104	22	114	1831	137097	1830	57974720
150	1291	3713	141	955	3426	-104	22	114	1832	137196	1831	57974777
128	1289	3717	138	954	3419	-110	22	108	1833	137247	1832	57974778
139	1284	3695	136	951	3412	-110	22	108	1834	137346	1833	57974780
129	1261	3713	138	951	3405	-111	25	107	1835	137397	1834	57974780
159	1274	3723	136	950	3397	-111	25	107	1836	137496	1835	57974783
164	1273	3711	137	946	3387	-112	24	108	1837	137547	1836	57974784
155	1276	3720	136	944	3380	-112	24	108	1838	137646	1837	57974785
167	1309	3731	137	941	3373	-107	21	103	1839	137696	1838	57974789
165	1294	3718	134	939	3365	-107	21	103	1840	137794	1839	57974789
142	1276	3721	134	938	3361	-111	27	109	1841	137845	1840	57974791
144	1284	3717	134	935	3356	-111	27	109	1842	137944	1841	57974791
141	1279	3718	134	930	3345	-110	18	106	1843	137995	1842	57974793
137	1279	3711	132	928	3338	-110	18	106	1844	138094	1843	57974797
138	1300	3701	131	928	3335	-114	20	108	1845	138145	1844	57974798
139	1283	3723	130	930	3326	-114	20	108	1846	138244	1845	57974802
153	1276	3720	132	922	3317	-107	13	113	1847	138295	1846	57974802
137	1295	3724	128	922	3309	-107	13	113	1848	138394	1847	57974806
160	1288	3710	130	919	3311	-109	19	109	1849	138445	1848	57974839
140	1279	3713	129	918	3286	-109	19	109	1850	138544	1849	57974839
150	1281	3709	130	915	3293	-113	21	107	1851	138595	1850	57974842
146	1281	3704	127	913	3286	-113	21	107	1852	138694	1851	57974843
151	1270	3714	128	910	3266	-111	25	97	1853	138745	1852	57974844
161	1273	3722	127	912	3259	-111	25	97	1854	138844	1853	57974848
146	1272	3739	128	909	3256	-119	21	105	1855	138895	1854	57974848
135	1283	3735	126	907	3257	-119	21	105	1856	138994	1855	57974849
149	1283	3724	129	901	3256	-115	19	105	1857	139045	1856	57974850
139	1274	3730	125	902	3253	-115	19	105	1858	139144	1857	57974853
157	1266	3720	127	898	3251	-113	11	105	1859	139195	1858	57974886
151	1271	3709	124	897	3241	-113	11	105	1860	139293	1859	57974886
146	1279	3719	128	894	3216	-117	17	109	1861	139344	1860	57974890
152	1276	3725	127	894	3220	-117	17	109	1862	139443	1861	57974890
166	1262	3727	126	890	3213	-120	20	100	1863	139494	1862	57974892
154	1263	3709	125	889	3202	-120	20	100	1864	139593	1863	57974893
149	1275	3715	126	887	3195	-122	16	104	1865	139644	1864	57974894
144	1273	3725	125	883	3190	-122	16	104	1866	139743	1865	57974898
157	1267	3710	126	880	3182	-116	8	102	1867	139794	1866	57974899
171	1264	3704	124	882	3170	-116	8	102	1868	139893	1867	57974933
158	1283	3707	125	879	3167	-115	9	105	1869	139944	1868	57974934
152	1263	3747	122	880	3160	-115	9	105	1870	140043	1869	57974936
159	1283	3721	121	876	3148	-125	13	99	1871	140094	1870	57974937
164	1269	3731	121	873	3147	-125	13	99	1872	140193	1871	57974937
161	1279	3741	124	872	3136	-124	10	100	1873	140244	1872	57974941
153	1261	3726	121	872	3126	-124	10	100	1874	140343	1873	57974941
161	1257	3717	124	868	3121	-119	19	99	1875	140394	1874	57974944
166	1276	3729	121	868	3117	-119	19	99	1876	140493	1875	57974950
166	1273	3723	121	867	3107	-118	6	106	1877	140544	1876	57974950
171	1271	3742	118	866	3098	-118	6	106	1878	140643	1877	57974985
154	1268	3736	119	865	3096	-118	6	104	1879	140694	1878	57974986
146	1267	3707	118	864	3086	-118	6	104	1880	140793	1879	57974987
143	1256	3721	119	864	3080	-123	7	99	1881	140844	1880	57974988
147	1247	3710	118	859	3076	-123	7	99	1882	140943	1881	57974988
157	1264	3720	118	856	3065	-128	6	98	1883	140994	1882	57974992
140	1252	3720	116	851	3060	-128	6	98	1884	141093	1883	57974992
135	1258	3725	114	849	3055	-120	10	102	1885	141144	1884	57974994
152	1258	3733	111	851	3046	-120	10	102	1886	141243	1885	57974997
134	1275	3704	114	850	3042	-121	5	97	1887	141294	1886	57974997
145	1252	3729	113	846	3035	-121	5	97	1888	141393	1887	57975032
147	1245	3728	118	842	3030	-121	3	105	1889	141444	1888	57975032
136	1257	3713	117	839	3025	-121	3	105	1890	141543	1889	57975035
173	1245	3739	115	833	3019	-126	4	102	1891	141594	1890	57975036
154	1264	3716	113	832	3010	-126	4	102	1892	141693	1891	57975038
140	1251	3694	114	834	3002	-126	2	98	1893	141744	1892	57975040
157	1272	3709	115	829	2997	-126	2	98	1894	141843	1893	57975040
148	1238	3739	116	825	2991	-131	3	99	1895	141894	1894	57975043
173	1264	3728	112	827	2984	-131	3	99	1896	141993	1895	57975049
166	1250	3750	113	822	2980	-122	-4	102	1897	142044	1896	57975052
162	1255	3731	112	821	2972	-122	-4	102	1898	142143	1897	57975083
157	1258	3716	111	818	2963	-126	-4	100	1899	142194	1898	57975084
154	1258	3708	109	816	2958	-126	-4	100	1900	142293	1899	57975087
170	1258	3720	112	816	2952	-118	-2	102	1901	142344	1900	57975087
167	1262	3720	111	817	2940	-118	-2	102	1902	142443	1901	57975089
166	1257	3717	111	809	2936	-129	1	97	1903	142494	1902	57975091
159	1246	3731	111	812	2930	-129	1	97	1904	142593	1903	57975091
171	1249	3698	109	807	2920	-132	-2	100	1905	142644	1904	57975094
161	1261	3736	108	808	2914	-132	-2	100	1906	142743	1905	57975097
165	1251	3747	111	804	2906	-127	-7	97	1907	142794	1906	57975099
172	1261	3730	108	802	2898	-127	-7	97	1908	142893	1907	57975131
169	1258	3724	108	802	2893	-126	-4	98	1909	142944	1908	57975131
158	1242	3743	106	799	2886	-126	-4	98	1910	143043	1909	57975134
166	1263	3724	108	795	2877	-124	-2	100	1911	143094	1910	57975135
154	1251	3724	106	794	2874	-124	-2	100	1912	143193	1911	57975137
159	1234	3742	105	792	2865	-127	-3	99	1913	143244	1912	57975138
