Accl X	Accl Y	Accl Z	Gyro X	Gyro Y	Gyro Z	Mag X	Mag Y	Mag Z	RPkt#	Rtime	LPkt#	Ltime
401	308	3805	-20	-28	23	-31	165	187	0	0	0	57728158
403	317	3781	-22	-33	42	-23	161	187	1	54	1	57728158
397	310	3833	-23	-33	4	-23	161	187	2	156	2	57728161
395	310	3817	-22	-33	51	-24	160	180	3	210	3	57728162
392	304	3764	-19	-33	25	-24	160	180	4	312	4	57728165
367	309	3776	-21	-31	53	-31	165	183	5	366	5	57728166
411	301	3826	-14	-36	51	-31	165	183	6	468	6	57728166
388	330	3780	-16	-35	24	-29	161	183	7	522	7	57728173
402	316	3787	-21	-34	41	-29	161	183	8	624	8	57728173
401	331	3791	-17	-33	30	-25	167	179	9	678	9	57728207
410	328	3804	-21	-35	76	-25	167	179	10	780	10	57728207
413	308	3768	-19	-33	49	-30	158	180	11	834	11	57728210
403	316	3770	-21	-34	19	-30	158	180	12	936	12	57728211
389	331	3790	-18	-33	66	-24	164	180	13	990	13	57728211
412	332	3790	-21	-35	36	-24	164	180	14	1092	14	57728215
403	322	3804	-20	-32	9	-29	163	185	15	1146	15	57728216
393	325	3791	-17	-35	69	-29	163	185	16	1248	16	57728217
415	303	3790	-16	-32	19	-29	163	179	17	1302	17	57728220
422	323	3794	-19	-35	38	-29	163	179	18	1404	18	57728221
424	330	3787	-16	-34	41	-25	163	187	19	1458	19	57728255
425	322	3792	-14	-34	15	-25	163	187	20	1560	20	57728256
386	316	3794	-20	-31	16	-28	166	182	21	1614	21	57728257
403	306	3795	-20	-32	3	-28	166	182	22	1716	22	57728259
394	324	3791	-20	-34	-18	-33	167	179	23	1770	23	57728259
407	312	3803	-17	-31	43	-33	167	179	24	1872	24	57728262
399	316	3781	-21	-30	49	-28	166	176	25	1926	25	57728263
401	336	3823	-18	-35	-7	-28	166	176	26	2028	26	57728265
413	339	3803	-17	-37	4	-28	162	182	27	2082	27	57728267
428	319	3804	-18	-33	47	-28	162	182	28	2184	28	57728267
394	336	3805	-18	-35	32	-23	163	189	29	2238	29	57728302
419	316	3779	-14	-33	50	-23	163	189	30	2340	30	57728303
393	319	3806	-18	-34	37	-29	161	181	31	2394	31	57728306
407	325	3801	-17	-33	19	-29	161	181	32	2496	32	57728307
411	303	3778	-21	-34	102	-31	169	179	33	2550	33	57728307
409	319	3784	-19	-35	-22	-31	169	179	34	2652	34	57728310
395	317	3786	-19	-32	18	-29	161	177	35	2706	35	57728310
414	314	3809	-17	-31	37	-29	161	177	36	2808	36	57728316
406	333	3792	-15	-31	7	-25	161	185	37	2862	37	57728316
393	325	3816	-17	-32	-18	-25	161	185	38	2964	38	57728319
418	334	3836	-20	-33	-35	-30	162	184	39	3018	39	57728351
410	322	3847	-21	-35	0	-30	162	184	40	3120	40	57728352
418	343	3817	-13	-31	40	-28	162	186	41	3174	41	57728355
421	337	3819	-18	-31	13	-28	162	186	42	3276	42	57728355
355	301	3703	-16	-26	61	-30	164	180	43	3330	43	57728357
403	292	3752	-19	-32	60	-30	164	180	44	3432	44	57728359
373	293	3825	-21	-32	12	-30	162	176	45	3486	45	57728359
386	309	3787	-20	-28	18	-30	162	176	46	3588	46	57728364
397	302	3773	-18	-26	50	-26	162	182	47	3642	47	57728364
416	304	3818	-18	-34	41	-26	162	182	48	3744	48	57728367
434	319	3846	-19	-34	24	-25	157	185	49	3798	49	57728400
420	320	3802	-13	-32	48	-25	157	185	50	3900	50	57728400
428	344	3788	-13	-34	-3	-32	158	186	51	3954	51	57728404
419	343	3798	-19	-33	34	-32	158	186	52	4056	52	57728404
393	308	3805	-21	-36	108	-31	165	183	53	4110	53	57728406
398	304	3776	-15	-34	64	-31	165	183	54	4212	54	57728408
396	305	3782	-14	-34	37	-33	163	175	55	4266	55	57728408
385	309	3786	-21	-33	11	-33	163	175	56	4368	56	57728413
385	308	3802	-21	-33	-48	-30	160	182	57	4422	57	57728413
386	314	3809	-15	-35	22	-30	160	182	58	4524	58	57728416
419	318	3819	-19	-34	30	-29	161	187	59	4578	59	57728448
400	321	3780	-21	-32	-15	-29	161	187	60	4680	60	57728448
421	328	3801	-19	-33	23	-26	168	184	61	4734	61	57728452
423	340	3800	-24	-31	-53	-26	168	184	62	4836	62	57728452
424	335	3811	-18	-33	-20	-25	161	181	63	4890	63	57728456
423	313	3816	-17	-36	33	-25	161	181	64	4992	64	57728456
424	312	3824	-19	-33	77	-34	166	182	65	5046	65	57728457
405	307	3785	-19	-33	44	-34	166	182	66	5148	66	57728463
402	313	3797	-17	-34	49	-25	159	185	67	5202	67	57728463
410	318	3797	-16	-34	30	-25	159	185	68	5304	68	57728497
410	315	3779	-19	-35	27	-26	162	184	69	5358	69	57728498
412	319	3812	-22	-32	101	-26	162	184	70	5460	70	57728500
419	316	3794	-20	-32	23	-24	162	184	71	5514	71	57728501
398	312	3778	-23	-35	-15	-24	162	184	72	5616	72	57728502
396	310	3825	-21	-35	19	-27	159	179	73	5670	73	57728506
410	327	3803	-20	-35	10	-27	159	179	74	5772	74	57728506
405	325	3798	-21	-34	35	-27	165	177	75	5826	75	57728507
397	303	3824	-19	-31	-1	-27	165	177	76	5928	76	57728513
417	307	3774	-19	-33	9	-26	160	186	77	5982	77	57728514
403	321	3772	-18	-32	51	-26	160	186	78	6084	78	57728522
417	310	3803	-18	-33	-3	-27	163	187	79	6138	79	57728523
399	310	3822	-14	-34	8	-27	163	187	80	6240	80	57728552
414	324	3803	-18	-35	43	-27	161	185	81	6294	81	57728554
392	308	3797	-20	-34	-14	-27	161	185	82	6396	82	57728554
406	331	3813	-20	-35	28	-29	169	181	83	6450	83	57728557
401	318	3793	-18	-36	0	-29	169	181	84	6552	84	57728558
403	324	3761	-19	-33	14	-26	162	184	85	6606	85	57728559
407	313	3791	-18	-34	32	-26	162	184	86	6708	86	57728561
411	309	3787	-24	-33	12	-31	163	179	87	6762	87	57728562
430	310	3804	-18	-34	-25	-31	163	179	88	6864	88	57728596
400	316	3808	-18	-32	-25	-26	156	182	89	6918	89	57728596
396	317	3792	-19	-31	23	-26	156	182	90	7020	90	57728597
381	325	3793	-23	-34	68	-31	163	185	91	7074	91	57728599
395	318	3780	-22	-34	-70	-31	163	185	92	7176	92	57728599
430	319	3821	-19	-33	17	-34	160	174	93	7230	93	57728602
386	324	3798	-18	-30	23	-34	160	174	94	7332	94	57728603
430	316	3793	-21	-31	28	-29	167	179	95	7386	95	57728606
422	315	3790	-22	-31	10	-29	167	179	96	7488	96	57728606
409	324	3802	-23	-34	-2	-19	161	185	97	7542	97	57728610
426	328	3802	-18	-35	61	-19	161	185	98	7644	98	57728643
406	331	3797	-19	-33	-19	-30	164	186	99	7698	99	57728643
402	310	3787	-15	-33	40	-30	164	186	100	7800	100	57728646
426	316	3794	-17	-33	20	-27	167	183	101	7854	101	57728647
392	309	3788	-22	-32	10	-27	167	183	102	7956	102	57728648
403	315	3798	-18	-34	4	-28	166	186	103	8010	103	57728650
419	324	3790	-17	-32	42	-28	166	186	104	8112	104	57728650
405	318	3802	-18	-33	85	-26	164	182	105	8166	105	57728655
413	313	3797	-20	-31	90	-26	164	182	106	8268	106	57728656
408	321	3788	-16	-33	-19	-27	167	189	107	8322	107	57728659
405	322	3793	-19	-34	39	-27	167	189	108	8424	108	57728691
399	310	3787	-18	-35	-19	-29	161	187	109	8478	109	57728692
403	317	3814	-20	-33	51	-29	161	187	110	8580	110	57728696
410	307	3799	-22	-34	14	-23	167	183	111	8634	111	57728699
417	331	3788	-17	-37	14	-23	167	183	112	8736	112	57728699
410	315	3781	-19	-35	56	-30	164	184	113	8790	113	57728699
410	314	3811	-16	-34	-39	-30	164	184	114	8892	114	57728700
411	315	3791	-19	-35	33	-32	162	180	115	8946	115	57728705
410	327	3788	-20	-36	7	-32	162	180	116	9048	116	57728706
411	312	3793	-20	-34	-13	-21	157	185	117	9102	117	57728707
408	310	3783	-21	-32	48	-21	157	185	118	9204	118	57728740
399	321	3798	-17	-32	50	-24	164	188	119	9258	119	57728741
413	328	3813	-17	-33	26	-24	164	188	120	9360	120	57728744
410	315	3811	-18	-34	77	-35	165	185	121	9414	121	57728745
424	324	3789	-20	-32	24	-35	165	185	122	9516	122	57728746
389	317	3800	-18	-30	44	-26	162	184	123	9570	123	57728748
396	314	3792	-18	-31	9	-26	162	184	124	9672	124	57728748
406	313	3780	-17	-27	24	-30	168	182	125	9726	125	57728752
418	321	3799	-20	-31	38	-30	168	182	126	9828	126	57728753
403	319	3809	-21	-32	33	-27	167	185	127	9882	127	57728787
403	325	3812	-19	-34	34	-27	167	185	128	9984	128	57728788
396	319	3804	-16	-34	17	-25	165	191	129	10038	129	57728788
400	302	3810	-19	-33	52	-25	165	191	130	10140	130	57728791
396	322	3788	-17	-32	-28	-30	162	182	131	10194	131	57728792
401	320	3787	-18	-34	3	-30	162	182	132	10296	132	57728795
383	321	3814	-16	-33	62	-23	163	187	133	10350	133	57728795
393	335	3806	-16	-34	-13	-23	163	187	134	10452	134	57728797
411	311	3785	-15	-34	42	-28	160	186	135	10506	135	57728804
412	318	3822	-18	-34	20	-28	160	186	136	10608	136	57728804
410	314	3808	-17	-32	-12	-27	163	187	137	10662	137	57728814
401	313	3831	-20	-35	22	-27	163	187	138	10764	138	57728818
399	322	3794	-19	-31	21	-27	157	185	139	10818	139	57728818
418	320	3801	-18	-35	-38	-27	157	185	140	10920	140	57728850
400	331	3783	-19	-33	24	-30	168	184	141	10974	141	57728851
384	321	3764	-22	-33	74	-30	168	184	142	11076	142	57728854
399	326	3798	-20	-33	30	-28	164	184	143	11130	143	57728855
403	319	3774	-22	-35	28	-28	164	184	144	11232	144	57728856
389	321	3810	-19	-35	-28	-31	165	177	145	11286	145	57728858
408	324	3757	-18	-32	27	-31	165	177	146	11388	146	57728858
420	316	3809	-26	-34	25	-31	161	183	147	11442	147	57728861
403	320	3818	-17	-36	34	-31	161	183	148	11544	148	57728861
413	300	3807	-18	-33	7	-29	165	185	149	11598	149	57728865
411	314	3807	-18	-35	48	-29	165	185	150	11700	150	57728898
408	309	3811	-17	-34	30	-30	160	184	151	11754	151	57728898
418	313	3806	-19	-32	-22	-30	160	184	152	11856	152	57728901
411	318	3786	-20	-33	28	-29	163	181	153	11910	153	57728902
408	316	3814	-20	-35	-16	-29	163	181	154	12012	154	57728903
406	323	3823	-22	-34	58	-26	162	180	155	12066	155	57728905
413	326	3796	-23	-35	31	-26	162	180	156	12168	156	57728905
394	303	3794	-20	-34	-32	-29	161	185	157	12222	157	57728912
407	313	3809	-20	-33	90	-29	161	185	158	12324	158	57728913
412	332	3803	-17	-34	-2	-29	161	187	159	12378	159	57728922
400	312	3780	-18	-33	36	-29	161	187	160	12480	160	57728923
398	307	3794	-21	-35	-3	-33	167	187	161	12534	161	57728923
388	309	3802	-19	-36	50	-33	167	187	162	12636	162	57728959
411	329	3784	-18	-34	33	-31	161	183	163	12690	163	57728959
409	320	3804	-18	-33	32	-31	161	183	164	12792	164	57728962
410	316	3811	-19	-32	-7	-26	158	186	165	12846	165	57728962
421	326	3797	-21	-35	32	-26	158	186	166	12948	166	57728965
413	315	3808	-20	-34	32	-27	159	181	167	13002	167	57728966
397	340	3782	-17	-33	80	-27	159	181	168	13104	168	57728966
432	307	3792	-15	-32	-11	-29	165	181	169	13158	169	57728970
407	328	3805	-17	-31	58	-29	165	181	170	13260	170	57728970
407	331	3811	-17	-33	-24	-25	155	185	171	13314	171	57728974
385	314	3808	-21	-34	6	-25	155	185	172	13416	172	57729006
404	306	3802	-18	-33	69	-28	164	190	173	13470	173	57729006
401	317	3806	-15	-32	-19	-28	164	190	174	13572	174	57729010
420	315	3795	-18	-33	48	-28	158	182	175	13626	175	57729010
405	328	3808	-20	-34	63	-28	158	182	176	13728	176	57729012
434	320	3806	-17	-34	21	-21	163	181	177	13782	177	57729014
428	320	3779	-19	-32	33	-21	163	181	178	13884	178	57729015
418	309	3829	-17	-34	-18	-29	163	183	179	13938	179	57729018
415	313	3799	-15	-33	26	-29	163	183	180	14040	180	57729019
408	331	3795	-18	-36	55	-30	162	188	181	14094	181	57729022
382	312	3800	-19	-37	49	-30	162	188	182	14196	182	57729055
399	311	3809	-20	-35	56	-25	157	187	183	14250	183	57729055
414	311	3786	-23	-32	-20	-25	157	187	184	14352	184	57729059
416	315	3798	-18	-35	69	-32	164	182	185	14406	185	57729059
406	315	3803	-18	-35	33	-32	164	182	186	14508	186	57729061
403	323	3785	-22	-32	-18	-30	164	180	187	14562	187	57729063
413	326	3780	-19	-35	-1	-30	164	180	188	14664	188	57729063
410	315	3813	-18	-33	10	-31	161	175	189	14718	189	57729070
426	321	3788	-22	-34	-1	-31	161	175	190	14820	190	57729070
397	323	3830	-21	-34	22	-22	158	186	191	14874	191	57729080
402	317	3805	-17	-31	-28	-22	158	186	192	14976	192	57729080
404	320	3811	-19	-34	-18	-30	158	182	193	15030	193	57729080
410	311	3805	-18	-34	19	-30	158	182	194	15132	194	57729117
379	332	3787	-18	-33	-2	-28	158	184	195	15186	195	57729117
416	324	3796	-20	-35	34	-28	158	184	196	15288	196	57729120
423	313	3814	-21	-34	19	-32	162	186	197	15342	197	57729120
409	326	3798	-18	-35	72	-32	162	186	198	15444	198	57729122
423	324	3820	-18	-33	-32	-28	164	182	199	15498	199	57729124
415	327	3795	-21	-33	65	-28	164	182	200	15600	200	57729124
415	308	3808	-20	-33	23	-33	163	175	201	15654	201	57729127
400	329	3797	-20	-32	39	-33	163	175	202	15756	202	57729128
410	316	3782	-22	-33	44	-26	156	184	203	15810	203	57729131
410	320	3811	-19	-32	10	-26	156	184	204	15912	204	57729188
404	321	3803	-19	-33	17	-32	158	186	205	15966	205	57729204
393	317	3794	-16	-34	49	-32	158	186	206	16068	206	57729205
404	314	3772	-18	-34	3	-23	161	185	207	16122	207	57729205
385	312	3772	-19	-34	54	-23	161	185	208	16224	208	57729206
415	321	3800	-17	-35	19	-29	163	179	209	16278	209	57729206
408	339	3806	-22	-36	8	-29	163	179	210	16380	210	57729206
410	324	3807	-17	-32	-9	-27	165	177	211	16434	211	57729207
411	318	3816	-21	-36	21	-27	165	177	212	16536	212	57729207
416	323	3787	-19	-32	22	-28	164	182	213	16590	213	57729207
384	324	3800	-19	-34	-26	-28	164	182	214	16692	214	57729208
405	319	3765	-18	-33	65	-33	169	177	215	16746	215	57729208
407	328	3799	-20	-35	11	-33	169	177	216	16848	216	57729208
389	314	3807	-20	-31	12	-24	158	182	217	16902	217	57729208
382	308	3808	-22	-35	42	-24	158	182	218	17004	218	57729211
382	314	3712	-19	-36	-14	-25	161	185	219	17058	219	57729211
378	315	3770	-17	-37	98	-25	161	185	220	17160	220	57729211
418	328	3844	-21	-33	55	-32	160	182	221	17214	221	57729250
417	327	3883	-22	-36	9	-32	160	182	222	17316	222	57729251
400	333	3856	-22	-36	25	-33	165	189	223	17370	223	57729254
435	330	3854	-20	-34	24	-33	165	189	224	17472	224	57729254
405	330	3806	-16	-33	51	-28	162	180	225	17526	225	57729256
417	322	3791	-20	-32	73	-28	162	180	226	17628	226	57729257
404	317	3803	-19	-34	37	-33	163	183	227	17682	227	57729257
396	310	3773	-18	-33	87	-33	163	183	228	17784	228	57729261
399	312	3798	-17	-35	66	-26	162	182	229	17838	229	57729261
403	328	3789	-17	-35	75	-26	162	182	230	17940	230	57729265
424	321	3781	-17	-34	47	-33	161	183	231	17994	231	57729297
391	321	3796	-20	-33	-7	-33	161	183	232	18096	232	57729298
414	312	3796	-18	-32	5	-31	159	179	233	18150	233	57729302
422	324	3776	-15	-32	-24	-31	159	179	234	18252	234	57729302
399	327	3806	-18	-32	74	-28	168	188	235	18306	235	57729304
403	330	3802	-13	-37	17	-28	168	188	236	18408	236	57729305
412	313	3784	-14	-33	23	-31	163	175	237	18462	237	57729306
410	316	3787	-17	-37	77	-31	163	175	238	18564	238	57729310
401	322	3785	-17	-32	45	-26	158	182	239	18618	239	57729311
357	361	3751	-16	-34	24	-26	158	182	240	18720	240	57729314
330	573	3907	-34	-30	20	-28	164	184	241	18774	241	57729347
-238	386	3898	-218	110	401	-28	164	184	242	18876	242	57729347
699	235	4001	-699	214	1313	-25	161	183	243	18930	243	57729350
678	1238	3778	-1079	0	441	-25	161	183	244	19032	244	57729351
385	686	4047	-2212	-141	-741	-30	164	184	245	19086	245	57729354
533	226	3909	-2938	-333	-946	-30	164	184	246	19188	246	57729354
26	338	3798	-2752	-408	-681	-25	163	181	247	19242	247	57729355
-261	812	3477	-2669	-430	-690	-25	163	181	248	19344	248	57729359
-481	1000	3915	-2750	-199	-625	-16	162	182	249	19398	249	57729359
-179	768	3922	-2517	0	-279	-16	162	182	250	19500	250	57729394
195	251	3865	-2355	-44	98	-17	155	185	251	19554	251	57729394
243	-178	3881	-2185	-98	132	-17	155	185	252	19656	252	57729395
-92	-527	4068	-1837	-136	230	-20	162	180	253	19710	253	57729397
-619	-743	4071	-1283	-303	142	-20	162	180	254	19812	254	57729398
-598	-744	4281	-472	-514	106	-20	162	174	255	19866	255	57729401
-533	-569	4275	399	-788	158	-20	162	174	256	19968	256	57729401
-641	-211	4080	1101	-1042	314	-18	162	174	257	20022	257	57729404
-610	35	4450	1666	-1267	587	-18	162	174	258	20124	258	57729409
-698	478	4142	2332	-1461	752	-24	156	182	259	20178	259	57729409
-496	529	4462	2901	-1548	1196	-24	156	182	260	20280	260	57729419
-452	638	4462	3749	-1640	1594	-14	156	186	261	20334	261	57729419
-427	478	4592	4617	-1852	1750	-14	156	186	262	20436	262	57729423
-12	985	5261	5599	-2333	2127	-20	158	186	263	20490	263	57729455
886	1535	5161	5264	-3220	2809	-20	158	186	264	20592	264	57729455
2272	121	6263	3049	-4648	4208	-24	156	178	265	20646	265	57729459
4778	1084	6807	4526	-6074	4828	-24	156	178	266	20748	266	57729459
6031	924	7087	8787	-6475	4003	-31	155	175	267	20802	267	57729463
6227	323	6868	12221	-6580	2697	-31	155	175	268	20904	268	57729463
5854	-60	6407	15022	-6215	1191	-33	149	173	269	20958	269	57729464
5396	-98	6118	17796	-5739	-736	-33	149	173	270	21060	270	57729466
4694	93	6428	20700	-5145	-2997	-46	148	170	271	21114	271	57729467
4170	535	6007	22885	-4600	-5338	-46	148	170	272	21216	272	57729502
3396	309	6208	24262	-4006	-7716	-62	140	166	273	21270	273	57729503
2097	-182	5294	25830	-3489	-9842	-62	140	166	274	21372	274	57729505
1289	-398	5642	26559	-3329	-11305	-82	146	156	275	21426	275	57729507
707	-494	5085	29076	-3379	-12832	-82	146	156	276	21528	276	57729508
1213	-1642	4962	32017	-3292	-14793	-101	155	143	277	21582	277	57729509
223	-1320	3383	32767	-2391	-18200	-101	155	143	278	21684	278	57729510
-970	1033	3634	32767	-2437	-21818	-127	161	119	279	21738	279	57729512
-772	2373	2804	32767	-2791	-23501	-127	161	119	280	21840	280	57729516
-1031	3468	1989	32767	-2685	-24216	-141	167	105	281	21894	281	57729517
-1105	3456	1369	31750	-2736	-23818	-141	167	105	282	21996	282	57729552
-1755	3401	874	29710	-2321	-22871	-154	184	76	283	22050	283	57729552
-776	3555	433	27829	-3107	-21879	-154	184	76	284	22152	284	57729554
579	3115	1953	26940	-3114	-21518	-164	202	62	285	22206	285	57729555
484	4054	452	28985	-1843	-21460	-164	202	62	286	22308	286	57729555
1068	3279	1423	30063	-1707	-21315	-169	219	37	287	22362	287	57729559
163	4448	-661	32269	-994	-21469	-169	219	37	288	22464	288	57729559
1531	5019	-528	31014	-2420	-21569	-166	242	12	289	22518	289	57729561
5510	8664	1645	25377	-2377	-20022	-166	242	12	290	22620	290	57729566
5471	3689	3078	14008	-1472	-15677	-155	249	3	291	22674	291	57729567
4201	-1944	2076	8552	-298	-14197	-155	249	3	292	22776	292	57729576
-9864	-13016	-2109	11651	2584	-19009	-149	259	-3	293	22830	293	57729577
-2911	2413	-2233	24129	1965	-30021	-149	259	-3	294	22932	294	57729611
-301	2940	-508	25054	-834	-29136	-133	283	-23	295	22986	295	57729611
883	-3721	-873	19765	-346	-28825	-133	283	-23	296	23088	296	57729612
-90	-4627	-1012	17915	-593	-31726	-117	285	-39	297	23142	297	57729615
-2219	-3654	-587	18587	-621	-32768	-117	285	-39	298	23244	298	57729616
-2517	-3438	-1055	18531	-778	-31819	-96	304	-48	299	23298	299	57729619
-1225	-5397	-1120	16514	-1050	-29551	-96	304	-48	300	23400	300	57729619
-1329	-8442	1164	14852	-1483	-28984	-82	314	-46	301	23454	301	57729621
-3532	-4853	-287	16070	-2238	-28914	-82	314	-46	302	23556	302	57729624
-4521	-2049	-2577	16131	-2224	-25894	-55	319	-51	303	23610	303	57729624
-4337	-1526	-3806	13534	-1910	-21670	-55	319	-51	304	23712	304	57729659
-3539	-2678	-3073	10639	-1289	-17442	-33	321	-51	305	23766	305	57729659
-3013	-4024	-2328	8977	-664	-14630	-33	321	-51	306	23868	306	57729661
-2861	-4640	-2342	8245	-217	-13412	-25	323	-55	307	23922	307	57729663
-3106	-4626	-3030	8049	220	-12748	-25	323	-55	308	24024	308	57729663
-3184	-4623	-3512	7737	757	-11557	-15	325	-45	309	24078	309	57729666
-3205	-4704	-3680	7123	1102	-9816	-15	325	-45	310	24180	310	57729666
-2848	-5036	-3978	6169	967	-7468	-4	330	-52	311	24234	311	57729670
-2415	-5591	-3752	4820	564	-4474	-4	330	-52	312	24336	312	57729672
-1818	-6181	-3176	3126	157	-833	6	324	-50	313	24390	313	57729673
-1542	-6189	-2859	1506	-280	2424	6	324	-50	314	24492	314	57729708
-1711	-5710	-2849	247	-834	4908	10	322	-44	315	24546	315	57729710
-2454	-5331	-5155	-1244	-1243	6838	10	322	-44	316	24648	316	57729711
-5508	-8347	-5342	-5658	-1297	8155	-4	328	-50	317	24702	317	57729711
-5660	-7281	-1673	-9891	-2729	9324	-4	328	-50	318	24804	318	57729712
-4839	-4153	-4274	-7993	-4654	11961	-14	328	-54	319	24858	319	57729716
-4737	-3013	-5140	-9219	-5374	15778	-14	328	-54	320	24960	320	57729716
-5199	-3393	-3674	-13807	-6072	20535	-27	339	-49	321	25014	321	57729717
-6040	-2355	-2650	-17251	-6840	25118	-27	339	-49	322	25116	322	57729720
-7082	-624	-3112	-20042	-7511	29920	-56	328	-44	323	25170	323	57729721
-7467	765	-2969	-23335	-8020	32767	-56	328	-44	324	25272	324	57729756
-7114	2122	-2472	-26570	-8446	32767	-81	333	-25	325	25326	325	57729757
-6001	2902	-2354	-29502	-8829	32767	-81	333	-25	326	25428	326	57729760
-3963	3435	-1479	-31832	-8925	32767	-111	317	-9	327	25482	327	57729760
-864	2485	274	-32597	-8190	32767	-111	317	-9	328	25584	328	57729762
61	3914	3241	-31242	-8074	32767	-150	276	12	329	25638	329	57729764
1608	3994	5220	-31038	-10340	32767	-150	276	12	330	25740	330	57729765
3980	5409	4311	-31789	-13280	32767	-163	231	41	331	25794	331	57729769
6249	2722	3526	-30537	-15117	32767	-163	231	41	332	25896	332	57729777
6994	485	3286	-26408	-16766	32767	-155	179	63	333	25950	333	57729777
6739	-302	2318	-24045	-17693	32767	-155	179	63	334	26052	334	57729829
5762	-473	2984	-22564	-18306	32767	-138	126	74	335	26106	335	57729829
4770	22	1741	-20960	-19330	32767	-138	126	74	336	26208	336	57729833
3806	-45	941	-20102	-19648	32767	-104	108	72	337	26262	337	57729833
2928	-76	993	-19870	-19831	32767	-104	108	72	338	26364	338	57729836
2154	88	610	-19548	-20081	32767	-75	93	59	339	26418	339	57729837
1529	-91	121	-19208	-20338	32767	-75	93	59	340	26520	340	57729837
1681	-429	-370	-18758	-20471	32767	-45	77	47	341	26574	341	57729840
4283	-1456	-1545	-18219	-20226	32767	-45	77	47	342	26676	342	57729841
5522	-1539	-2452	-17733	-18892	32767	-11	79	35	343	26730	343	57729842
6543	-2457	-2880	-17464	-16365	31913	-11	79	35	344	26832	344	57729844
8349	-3867	-3825	-17255	-12973	26787	6	86	20	345	26886	345	57729846
9025	-5456	-3369	-15693	-9001	20750	6	86	20	346	26988	346	57729847
8692	-5603	-2634	-13099	-5623	13876	21	95	9	347	27042	347	57729848
6958	-5262	-2425	-10226	-2693	7395	21	95	9	348	27144	348	57729850
4748	-4622	-2087	-8790	-812	2463	26	90	12	349	27198	349	57729853
2663	-3890	-913	-9090	43	-22	26	90	12	350	27300	350	57729853
1739	-3295	-931	-10192	-231	146	21	95	7	351	27354	351	57729889
1865	-2994	-1019	-11539	-1241	1727	21	95	7	352	27456	352	57729889
1826	-2344	-729	-12659	-2140	3694	21	99	-1	353	27510	353	57729892
1847	-1527	-716	-13085	-2868	5466	21	99	-1	354	27612	354	57729893
2146	-983	-372	-13137	-3088	6936	18	100	-6	355	27666	355	57729893
2851	-195	170	-11873	-2829	7004	18	100	-6	356	27768	356	57729896
3392	-50	461	-9485	-2170	5582	17	101	-9	357	27822	357	57729896
3616	89	723	-7377	-1143	3953	17	101	-9	358	27924	358	57729901
3656	456	938	-6083	131	2059	26	100	-10	359	27978	359	57729901
3751	286	908	-5313	1416	29	26	100	-10	360	28080	360	57729905
3850	49	696	-4805	2861	-2099	22	100	-8	361	28134	361	57729938
4118	-149	555	-4268	4395	-4219	22	100	-8	362	28236	362	57729938
4347	-97	413	-3484	6074	-6323	12	100	2	363	28290	363	57729941
4489	121	441	-2621	8003	-8747	12	100	2	364	28392	364	57729941
4466	537	602	-1684	10213	-11389	10	100	-4	365	28446	365	57729943
4332	906	654	-633	12641	-14279	10	100	-4	366	28548	366	57729945
4213	820	648	709	15198	-17175	-9	91	11	367	28602	367	57729945
3255	893	454	2442	17989	-20036	-9	91	11	368	28704	368	57729950
2711	838	211	4456	20988	-23378	-19	85	21	369	28758	369	57729950
1841	72	-255	6192	24131	-26821	-19	85	21	370	28860	370	57729952
1342	668	80	6553	27550	-29771	-35	77	37	371	28914	371	57729985
605	655	-380	7396	30927	-32437	-35	77	37	372	29016	372	57729986
-575	796	-706	8196	32767	-32768	-60	86	60	373	29070	373	57729989
-1641	802	-1136	8691	32767	-32768	-60	86	60	374	29172	374	57729989
-2719	477	-1254	9692	32767	-32768	-93	103	79	375	29226	375	57729992
-3355	109	-1751	11392	32767	-32768	-93	103	79	376	29328	376	57729997
-3870	389	-1958	12449	32767	-32768	-122	128	100	377	29382	377	57729998
-4270	681	-1659	13140	32767	-32768	-122	128	100	378	29484	378	57730000
-4127	524	-1140	13719	32767	-32768	-136	164	118	379	29538	379	57730000
-5000	1267	-2024	16449	32767	-32768	-136	164	118	380	29640	380	57730035
-5999	-390	-1306	16084	32767	-32768	-151	211	117	381	29694	381	57730035
-6036	-423	-888	13688	32767	-32768	-151	211	117	382	29796	382	57730037
-6475	-860	-813	10236	32767	-32768	-151	249	107	383	29850	383	57730039
-6283	-800	-2335	9150	32767	-32768	-151	249	107	384	29952	384	57730039
-7888	-294	-2312	9340	32767	-32768	-150	294	78	385	30006	385	57730042
-8978	658	-3090	10099	32767	-32768	-150	294	78	386	30108	386	57730045
-9311	621	-2306	9415	32767	-32768	-130	330	50	387	30162	387	57730045
-10140	146	-1020	7685	32767	-32768	-130	330	50	388	30264	388	57730047
-9005	453	-2397	7733	32767	-32768	-111	343	17	389	30318	389	57730048
-7786	916	-3462	8505	32767	-32636	-111	343	17	390	30420	390	57730082
-6482	684	-2231	8890	32767	-29279	-82	342	-2	391	30474	391	57730083
-5467	-96	-3084	10200	32767	-25920	-82	342	-2	392	30576	392	57730085
-5919	520	-3586	9958	32767	-23093	-67	335	-31	393	30630	393	57730086
-6232	526	-3980	7092	28613	-20492	-67	335	-31	394	30732	394	57730086
-6118	308	-3755	4048	23383	-17692	-53	325	-45	395	30786	395	57730090
-6034	337	-3396	2472	18109	-14568	-53	325	-45	396	30888	396	57730090
-5327	782	-3339	1602	13168	-11357	-43	323	-59	397	30942	397	57730092
-4966	1193	-2698	-131	8605	-8457	-43	323	-59	398	31044	398	57730097
-4187	1080	-2598	-2256	4545	-5903	-37	313	-61	399	31098	399	57730098
-3631	658	-2532	-3708	1491	-3661	-37	313	-61	400	31200	400	57730132
-3260	357	-2586	-4276	-928	-1685	-40	314	-64	401	31254	401	57730133
-3071	284	-2630	-4537	-3031	-210	-40	314	-64	402	31356	402	57730135
-3271	419	-2812	-4871	-4995	1017	-45	309	-61	403	31410	403	57730136
-3592	506	-2893	-5407	-6918	2061	-45	309	-61	404	31512	404	57730136
-3818	648	-2939	-5959	-8783	3215	-50	318	-56	405	31566	405	57730140
-4101	585	-2828	-6340	-10487	4495	-50	318	-56	406	31668	406	57730140
-4232	287	-2678	-6479	-11983	5659	-50	328	-50	407	31722	407	57730144
-4292	133	-2529	-6272	-13037	6485	-50	328	-50	408	31824	408	57730144
-4369	280	-2214	-5752	-13624	6957	-60	330	-44	409	31878	409	57730144
-4313	909	-1976	-5088	-13926	7226	-60	330	-44	410	31980	410	57730180
-4073	1489	-1888	-4629	-14314	7773	-70	338	-30	411	32034	411	57730180
-3594	1465	-1179	-4323	-14998	8497	-70	338	-30	412	32136	412	57730183
-3527	1617	-665	-3607	-16007	9657	-74	338	-26	413	32190	413	57730185
-3884	2205	-356	-2910	-17676	11179	-74	338	-26	414	32292	414	57730186
-4030	2583	152	-2329	-20164	13423	-80	342	-20	415	32346	415	57730188
-3763	2612	830	-1442	-23118	16449	-80	342	-20	416	32448	416	57730188
-3186	2433	1340	-192	-26248	19910	-90	342	-8	417	32502	417	57730191
-2362	2317	1658	907	-29277	23601	-90	342	-8	418	32604	418	57730191
-2210	1480	2029	1563	-32050	27237	-106	334	22	419	32658	419	57730195
-2375	1485	1305	2640	-32768	31486	-106	334	22	420	32760	420	57730228
-2600	886	1906	3260	-32768	32767	-124	332	40	421	32814	421	57730228
-2170	1385	2568	2701	-32768	32767	-124	332	40	422	32916	422	57730231
-2521	2026	1875	410	-32768	32767	-145	303	61	423	32970	423	57730231
-2594	2093	616	-5507	-31498	32767	-145	303	61	424	33072	424	57730233
-1784	2196	-746	-14111	-30494	32767	-155	265	73	425	33126	425	57730235
322	2298	-687	-22592	-30173	32767	-155	265	73	426	33228	426	57730235
2952	2662	134	-29201	-30500	32767	-157	225	99	427	33282	427	57730242
3826	1962	3474	-32768	-30140	32767	-157	225	99	428	33384	428	57730243
4043	2160	5147	-32768	-29192	32767	-145	191	129	429	33438	429	57730245
4527	2420	5855	-32768	-28523	32767	-145	191	129	430	33540	430	57730277
4493	2549	7130	-32768	-28270	32767	-128	158	132	431	33594	431	57730278
3663	2930	6810	-32768	-28399	31787	-128	158	132	432	33696	432	57730281
2575	2848	6753	-32768	-28703	30504	-102	132	138	433	33750	433	57730281
1809	3451	6205	-32768	-28900	29765	-102	132	138	434	33852	434	57730283
1339	3877	5881	-32768	-28610	29322	-68	110	132	435	33906	435	57730285
984	3984	5728	-32768	-27780	28937	-68	110	132	436	34008	436	57730285
1605	3821	5324	-32218	-26633	28340	-35	97	115	437	34062	437	57730290
1849	3936	5649	-30391	-24837	27470	-35	97	115	438	34164	438	57730290
2712	4275	6243	-27500	-22609	26218	-15	93	101	439	34218	439	57730326
3924	3832	6738	-23443	-20076	24333	-15	93	101	440	34320	440	57730326
5963	2760	5744	-17665	-17045	21351	17	85	91	441	34374	441	57730327
7167	1627	4508	-11560	-13041	17149	17	85	91	442	34476	442	57730329
7030	588	3040	-5984	-8433	12180	30	90	80	443	34530	443	57730329
5649	-982	1794	-1638	-3942	6181	30	90	80	444	34632	444	57730332
3700	-2438	884	1130	-468	642	34	88	70	445	34686	445	57730332
2865	-3251	-161	2444	1536	-2792	34	88	70	446	34788	446	57730335
3134	-3938	-682	2251	2465	-3827	27	91	69	447	34842	447	57730340
2737	-4198	-1168	1163	2573	-3329	27	91	69	448	34944	448	57730340
1946	-3833	-409	-582	1944	-2287	34	84	82	449	34998	449	57730376
1416	-2845	267	-2295	872	-1050	34	84	82	450	35100	450	57730377
1453	-1820	1010	-3873	-339	-45	35	83	77	451	35154	451	57730377
2236	-1165	1868	-4976	-1357	538	35	83	77	452	35256	452	57730378
2903	-690	2383	-5017	-1671	946	23	91	75	453	35310	453	57730379
3771	-617	3171	-4175	-1497	683	23	91	75	454	35412	454	57730382
4016	-230	3609	-2665	-878	-307	32	90	70	455	35466	455	57730388
4747	-414	2361	-411	247	-2197	32	90	70	456	35568	456	57730388
4236	71	4528	2339	2651	-5289	30	90	70	457	35622	457	57730389
5397	515	4381	5227	4387	-8425	30	90	70	458	35724	458	57730389
5969	419	4460	7871	6616	-11741	21	79	77	459	35778	459	57730423
5970	156	4618	10563	9416	-15202	21	79	77	460	35880	460	57730423
5667	103	4865	13335	12218	-19038	10	82	90	461	35934	461	57730425
4947	141	4265	15817	14797	-22937	10	82	90	462	36036	462	57730426
4259	82	3775	17284	17371	-26700	-16	88	102	463	36090	463	57730426
3414	-346	3317	17966	20113	-30019	-16	88	102	464	36192	464	57730430
3186	427	3020	18256	23075	-32768	-47	93	109	465	36246	465	57730430
2970	344	3203	19804	26016	-32768	-47	93	109	466	36348	466	57730434
2148	126	3206	20937	28835	-32768	-73	113	123	467	36402	467	57730434
942	953	3480	21295	31494	-32768	-73	113	123	468	36504	468	57730437
629	1639	3183	22258	32767	-32768	-103	135	135	469	36558	469	57730469
478	1484	3585	22100	32767	-32768	-103	135	135	470	36660	470	57730469
236	2093	3428	21790	32767	-32768	-133	167	127	471	36714	471	57730472
-128	1649	2940	21982	32767	-32768	-133	167	127	472	36816	472	57730472
-424	868	2068	22444	32767	-32768	-148	214	124	473	36870	473	57730475
-279	-22	592	23026	32767	-32768	-148	214	124	474	36972	474	57730476
-129	-638	-1059	22994	32767	-32768	-153	259	105	475	37026	475	57730476
-111	-1265	-2377	21962	32767	-32768	-153	259	105	476	37128	476	57730483
-36	-1867	-3224	20050	32767	-32768	-150	300	80	477	37182	477	57730484
1637	-4366	-4384	18386	32767	-32768	-150	300	80	478	37284	478	57730487
-42	-2751	-5642	20058	32767	-32768	-129	327	47	479	37338	479	57730520
-3362	889	-5673	18549	32767	-32768	-129	327	47	480	37440	480	57730521
-4512	1809	-4591	12205	32767	-32768	-106	344	14	481	37494	481	57730523
-4697	1776	-4669	7422	32767	-28456	-106	344	14	482	37596	482	57730524
-2617	324	-4210	4506	32767	-21231	-91	339	-21	483	37650	483	57730526
-975	-289	-3829	3492	25548	-13537	-91	339	-21	484	37752	484	57730527
-237	-1101	-3851	2355	17159	-6563	-80	334	-36	485	37806	485	57730527
421	-2035	-3504	-6	8850	-756	-80	334	-36	486	37908	486	57730531
726	-2072	-3275	-2824	1580	3507	-82	322	-32	487	37962	487	57730531
472	-1567	-3059	-5253	-4203	6886	-82	322	-32	488	38064	488	57730533
-243	-971	-2921	-7109	-8995	10025	-94	320	-30	489	38118	489	57730566
-1098	-612	-2478	-8625	-13309	13022	-94	320	-30	490	38220	490	57730566
-1929	-150	-1699	-10038	-17001	15882	-95	323	-21	491	38274	491	57730570
-2109	569	-670	-11064	-19828	18355	-95	323	-21	492	38376	492	57730570
-2131	1646	351	-11483	-21573	20437	-114	324	-14	493	38430	493	57730574
-2660	3077	1500	-11790	-22702	22236	-114	324	-14	494	38532	494	57730574
-2830	5998	2884	-11474	-23997	25149	-128	320	18	495	38586	495	57730576
-1657	3834	4181	-9705	-25318	28347	-128	320	18	496	38688	496	57730581
-643	4072	5031	-9573	-25880	28383	-136	304	34	497	38742	497	57730581
1073	5649	4562	-9413	-25779	28308	-136	304	34	498	38844	498	57730616
2016	5052	5308	-10379	-26191	28688	-157	285	57	499	38898	499	57730616
2395	4475	5605	-11926	-27174	29365	-157	285	57	500	39000	500	57730618
2881	4236	5721	-13472	-28520	30927	-157	269	67	501	39054	501	57730620
3000	3750	5726	-15225	-30102	32767	-157	269	67	502	39156	502	57730620
3398	3198	5692	-17228	-31736	32767	-161	241	79	503	39210	503	57730624
4220	2469	6080	-19128	-32768	32767	-161	241	79	504	39312	504	57730624
5166	2700	5627	-20713	-32768	32767	-161	201	99	505	39366	505	57730626
5619	2752	6193	-22893	-32766	32767	-161	201	99	506	39468	506	57730627
5435	3106	6342	-24944	-31551	32767	-147	163	113	507	39522	507	57730628
5570	3535	6280	-27346	-29913	32767	-147	163	113	508	39624	508	57730662
5279	3840	6116	-29565	-28008	32767	-117	127	121	509	39678	509	57730662
4736	4419	6020	-31221	-26164	32767	-117	127	121	510	39780	510	57730666
4220	5315	5582	-32507	-24490	32767	-85	101	113	511	39834	511	57730666
3239	5400	5611	-32768	-22984	32767	-85	101	113	512	39936	512	57730667
2565	5502	5218	-32768	-21690	32767	-53	89	101	513	39990	513	57730670
2422	5499	4835	-32070	-20365	31472	-53	89	101	514	40092	514	57730670
2571	5358	3875	-29075	-18619	28196	-26	84	88	515	40146	515	57730675
2231	4982	3202	-25359	-16242	24368	-26	84	88	516	40248	516	57730675
1531	4573	2518	-21263	-13474	19716	-3	83	83	517	40302	517	57730678
1695	4106	1793	-17027	-10508	14447	-3	83	83	518	40404	518	57730711
3686	2721	705	-12656	-7035	8556	7	85	71	519	40458	519	57730712
5399	944	750	-8061	-2609	2410	7	85	71	520	40560	520	57730715
5838	-380	1302	-2866	2221	-4063	12	88	62	521	40614	521	57730732
5446	-1061	2135	2118	6539	-10132	12	88	62	522	40716	522	57730733
5207	-1310	2429	6438	9553	-15193	8	82	70	523	40770	523	57730733
5591	-1900	2053	9861	11532	-19175	8	82	70	524	40872	524	57730733
5967	-1896	2049	11945	13150	-22387	-13	83	83	525	40926	525	57730733
5546	-1364	2786	12641	14637	-25192	-13	83	83	526	41028	526	57730734
4594	-657	2744	12502	15694	-27359	-33	81	91	527	41082	527	57730734
2734	525	3010	11786	16415	-29292	-33	81	91	528	41184	528	57730760
1579	1689	3109	11269	16898	-30925	-56	90	102	529	41238	529	57730761
963	2123	3295	11328	17363	-32737	-56	90	102	530	41340	530	57730764
1232	2631	3374	11745	18341	-32768	-86	108	108	531	41394	531	57730764
1683	2710	2926	12135	20255	-32768	-86	108	108	532	41496	532	57730766
1301	2661	2370	12469	22994	-32768	-105	129	105	533	41550	533	57730768
364	2162	2239	12303	26256	-32768	-105	129	105	534	41652	534	57730768
-704	2112	2132	12054	29865	-32768	-133	163	113	535	41706	535	57730773
-1764	1716	1836	11870	32767	-32768	-133	163	113	536	41808	536	57730773
-3050	1715	2467	11280	32767	-32768	-151	203	119	537	41862	537	57730808
-3149	1681	2083	11413	32767	-32768	-151	203	119	538	41964	538	57730808
-4066	2267	677	11208	32767	-32768	-150	246	106	539	42018	539	57730808
-2221	-500	393	9979	32767	-32768	-150	246	106	540	42120	540	57730811
-2872	1118	-2177	13371	32767	-32768	-147	289	83	541	42174	541	57730812
-3318	810	-800	17433	32767	-32768	-147	289	83	542	42276	542	57730815
-2695	2315	-2767	20393	32767	-32768	-130	324	50	543	42330	543	57730815
-1438	881	-2410	16581	32767	-32768	-130	324	50	544	42432	544	57730817
-1226	244	-3637	13276	32767	-32768	-108	342	18	545	42486	545	57730823
-1210	208	-4402	10039	32767	-32768	-108	342	18	546	42588	546	57730823
-1824	-489	-4312	7215	32767	-32392	-77	355	-5	547	42642	547	57730858
-2133	-577	-3617	6224	31861	-24643	-77	355	-5	548	42744	548	57730858
-2329	-445	-3539	5335	23304	-16874	-63	343	-29	549	42798	549	57730860
-2379	-987	-3512	2872	14196	-9918	-63	343	-29	550	42900	550	57730861
-2537	-1041	-3301	212	5652	-3717	-55	341	-39	551	42954	551	57730862
-2807	-592	-2957	-1940	-1211	1145	-55	341	-39	552	43056	552	57730865
-3142	-140	-2498	-3129	-5907	4733	-62	344	-40	553	43110	553	57730866
-3585	105	-2010	-3474	-8681	7395	-62	344	-40	554	43212	554	57730867
-3950	-40	-1714	-3540	-10146	9151	-64	342	-28	555	43266	555	57730870
-4353	-104	-1568	-3698	-11010	10189	-64	342	-28	556	43368	556	57730870
-4817	184	-1636	-4004	-11674	10760	-70	340	-18	557	43422	557	57730905
-4719	548	-1619	-4399	-12426	11481	-70	340	-18	558	43524	558	57730905
-3925	1095	-1353	-4770	-13308	12329	-72	340	-8	559	43578	559	57730907
-3539	1586	-1214	-5081	-14263	13762	-72	340	-8	560	43680	560	57730909
-3967	1612	-905	-5582	-15606	15661	-93	339	-1	561	43734	561	57730910
-4363	1503	-706	-6304	-17607	17997	-93	339	-1	562	43836	562	57730913
-4298	1540	-641	-7380	-20196	20728	-99	337	11	563	43890	563	57730913
-4244	1893	-534	-8727	-23048	23609	-99	337	11	564	43992	564	57730915
-5000	3925	-645	-10377	-25896	27338	-116	328	28	565	44046	565	57730916
-4397	2092	219	-12226	-29099	32342	-116	328	28	566	44148	566	57730917
-4177	1243	1030	-12978	-31941	32767	-134	312	60	567	44202	567	57730953
-3369	2461	1228	-13627	-32768	32767	-134	312	60	568	44304	568	57730953
-2693	2494	2057	-14594	-32768	32767	-152	282	78	569	44358	569	57730956
-2450	2737	2070	-14831	-32768	32767	-152	282	78	570	44460	570	57730957
-1271	2091	1919	-16137	-32768	32767	-155	241	101	571	44514	571	57730957
-361	1459	2224	-17783	-32768	32767	-155	241	101	572	44616	572	57730960
342	984	1815	-19124	-32768	32767	-151	199	117	573	44670	573	57730961
703	1034	1790	-20406	-31540	32767	-151	199	117	574	44772	574	57730965
1341	1472	1866	-21350	-29317	32767	-136	160	122	575	44826	575	57730965
1449	1909	2046	-21762	-27139	32767	-136	160	122	576	44928	576	57730969
890	2187	1998	-21268	-25086	32767	-115	127	121	577	44982	577	57731001
415	2072	2312	-20028	-23137	32767	-115	127	121	578	45084	578	57731002
-73	2982	1047	-17951	-21258	32744	-93	115	121	579	45138	579	57731005
-2704	7177	-4130	-17896	-18697	32682	-93	115	121	580	45240	580	57731005
-1296	2638	312	-22778	-16499	32767	-63	93	107	581	45294	581	57731007
540	439	1422	-22507	-14473	32767	-63	93	107	582	45396	582	57731009
2388	550	1048	-20303	-12059	30675	-41	89	101	583	45450	583	57731009
3923	1021	1436	-18091	-8964	26803	-41	89	101	584	45552	584	57731014
4767	962	2609	-16060	-5551	22973	-7	79	93	585	45606	585	57731014
5383	-157	4046	-13640	-2537	18976	-7	79	93	586	45708	586	57731017
6307	-1040	4450	-10141	-62	14326	6	82	96	587	45762	587	57731050
7408	-1538	4121	-6324	2193	9059	6	82	96	588	45864	588	57731051
7031	-1919	3754	-2900	4579	3728	21	83	91	589	45918	589	57731055
5789	-2169	3641	-128	6601	-521	21	83	91	590	46020	590	57731078
4493	-2137	3053	1855	7759	-3489	13	85	99	591	46074	591	57731083
3676	-1996	1916	2767	8030	-5285	13	85	99	592	46176	592	57731083
3335	-2302	1601	2649	7933	-6270	9	89	111	593	46230	593	57731084
3092	-2641	2008	2238	7846	-6657	9	89	111	594	46332	594	57731084
2552	-2719	2375	2021	7322	-6656	-5	89	113	595	46386	595	57731086
1648	-2599	2339	1785	6208	-6056	-5	89	113	596	46488	596	57731109
1169	-2285	2081	1282	4601	-4974	-2	86	120	597	46542	597	57731109
1587	-1128	1945	455	2976	-3778	-2	86	120	598	46644	598	57731109
2177	-332	2424	-919	1893	-3171	-12	96	118	599	46698	599	57731113
2546	-1209	2032	-2618	1419	-2869	-12	96	118	600	46800	600	57731113
3189	-551	1962	-4412	1159	-2813	-7	91	117	601	46854	601	57731116
3146	622	1379	-7302	1254	-2942	-7	91	117	602	46956	602	57731117
-691	3160	-146	-12834	2380	-1906	-5	97	117	603	47010	603	57731119
-72	1617	-2138	-21965	3850	1282	-5	97	117	604	47112	604	57731120
2693	-3408	1650	-28395	1575	3158	3	95	117	605	47166	605	57731121
3727	-4724	2184	-25479	-21	3239	3	95	117	606	47268	606	57731125
3897	-3761	2629	-19973	-307	3230	9	93	113	607	47322	607	57731126
3919	-2714	3428	-14551	-145	2861	9	93	113	608	47424	608	57731127
3734	-1222	2838	-10509	598	2154	24	88	120	609	47478	609	57731160
3629	-403	1957	-9456	1999	1371	24	88	120	610	47580	610	57731160
3307	-744	2386	-10780	4342	619	21	91	113	611	47634	611	57731164
2631	-1674	3551	-11759	6606	-447	21	91	113	612	47736	612	57731165
2858	-2695	4596	-10103	7667	-1164	25	101	113	613	47790	613	57731166
3305	-2796	4235	-6830	7892	-1120	25	101	113	614	47892	614	57731168
4765	-2608	2274	-4224	8321	-1317	27	101	121	615	47946	615	57731168
3683	-3304	-771	-4203	11106	-2580	27	101	121	616	48048	616	57731171
3016	-520	502	-8684	15182	-4908	31	97	121	617	48102	617	57731172
1626	-2802	4919	-12686	16171	-5493	31	97	121	618	48204	618	57731206
1741	-4384	3341	-10344	13951	-4249	33	107	137	619	48258	619	57731207
2020	-3894	2159	-7323	11520	-3075	33	107	137	620	48360	620	57731208
2237	-3167	1139	-5839	8887	-2255	34	110	138	621	48414	621	57731210
2428	-2875	1425	-5837	6633	-1704	34	110	138	622	48516	622	57731211
2254	-2933	1857	-5802	5241	-1435	28	118	134	623	48570	623	57731214
2374	-2831	2171	-5707	4254	-1356	28	118	134	624	48672	624	57731214
2544	-2582	1891	-5580	3603	-1366	36	110	132	625	48726	625	57731216
2400	-2673	2522	-5603	3538	-1413	36	110	132	626	48828	626	57731222
2096	-2859	2874	-5710	3780	-1486	40	114	136	627	48882	627	57731222
1856	-3036	3029	-5985	3954	-1465	40	114	136	628	48984	628	57731256
1887	-3266	3022	-6204	3719	-1664	39	119	141	629	49038	629	57731257
2546	-6038	4427	-5570	3335	-1846	39	119	141	630	49140	630	57731259
1480	-2120	3045	-4172	2689	-3281	43	121	139	631	49194	631	57731260
1065	-1571	2585	-4329	3150	-2946	43	121	139	632	49296	632	57731260
1325	-1331	2404	-5306	3348	-2646	42	118	132	633	49350	633	57731264
1684	-2194	2470	-5875	3927	-1959	42	118	132	634	49452	634	57731265
2251	-2023	2827	-4941	4658	-843	45	125	135	635	49506	635	57731266
1913	-2425	4606	-4787	5003	250	45	125	135	636	49608	636	57731269
1444	-3054	3643	-4094	5945	1223	40	120	138	637	49662	637	57731269
1074	-3116	3578	-4530	7073	1616	40	120	138	638	49764	638	57731304
105	-3385	2535	-6782	7873	1338	43	125	145	639	49818	639	57731310
942	-4391	1538	-11130	8813	481	43	125	145	640	49920	640	57731311
144	-3987	689	-12256	9977	222	50	134	136	641	49974	641	57731311
84	-3073	1162	-17001	9562	-1043	50	134	136	642	50076	642	57731311
979	-2681	1507	-21680	8108	-2022	60	134	132	643	50130	643	57731312
794	-2666	2216	-26830	6378	-3358	60	134	132	644	50232	644	57731313
1728	-3587	1883	-31545	5243	-3676	76	140	132	645	50286	645	57731314
1575	-4216	1872	-32768	4926	-3657	76	140	132	646	50388	646	57731315
2055	-4961	897	-32768	5310	-3356	82	134	114	647	50442	647	57731317
2034	-5098	60	-32768	5782	-3208	82	134	114	648	50544	648	57731351
1711	-5272	-166	-32768	6413	-3663	90	136	102	649	50598	649	57731352
2130	-5394	-767	-32768	6957	-4192	90	136	102	650	50700	650	57731355
2272	-5127	-870	-32768	7378	-4723	102	138	74	651	50754	651	57731355
2427	-4926	-915	-32768	7178	-5039	102	138	74	652	50856	652	57731356
2338	-4730	-1207	-32768	6540	-5317	96	138	48	653	50910	653	57731359
2161	-4498	-1650	-32768	5471	-5848	96	138	48	654	51012	654	57731360
2058	-4372	-1967	-32768	4296	-6806	87	135	25	655	51066	655	57731366
1520	-3609	-2371	-32768	3447	-7659	87	135	25	656	51168	656	57731367
1409	-3314	-2437	-32768	2747	-8055	77	129	9	657	51222	657	57731369
1527	-2986	-2680	-30869	2371	-7972	77	129	9	658	51324	658	57731401
1989	-2549	-3090	-27901	2174	-7790	73	125	-1	659	51378	659	57731402
2260	-2637	-3326	-25885	2044	-7805	73	125	-1	660	51480	660	57731405
1878	-3230	-2354	-22433	1974	-7459	57	121	-7	661	51534	661	57731405
2228	-2647	-2319	-14773	1192	-6104	57	121	-7	662	51636	662	57731407
3285	-2677	-2622	-8229	-580	-4855	47	119	-17	663	51690	663	57731409
3586	-1947	-3713	-5923	-1299	-4452	47	119	-17	664	51792	664	57731409
3202	-1301	-3736	-7227	-1769	-4896	36	112	-20	665	51846	665	57731414
2613	-1048	-3173	-8680	-2185	-5245	36	112	-20	666	51948	666	57731414
2400	-1403	-2782	-8643	-2429	-5226	36	114	-18	667	52002	667	57731417
1838	-274	-3461	-7926	-2714	-5032	36	114	-18	668	52104	668	57731450
1772	111	-2972	-8885	-3097	-5028	24	116	-28	669	52158	669	57731450
1826	218	-2857	-10337	-3576	-5167	24	116	-28	670	52260	670	57731454
2111	383	-2890	-11015	-3568	-4924	17	115	-33	671	52314	671	57731455
2246	277	-3030	-10616	-2958	-4574	17	115	-33	672	52416	672	57731456
2078	44	-3400	-10037	-2275	-4301	12	114	-38	673	52470	673	57731458
1923	-106	-3615	-9905	-1784	-4225	12	114	-38	674	52572	674	57731458
1929	-157	-3865	-9938	-1450	-4392	5	119	-45	675	52626	675	57731463
1930	-86	-4101	-9843	-1074	-4480	5	119	-45	676	52728	676	57731463
2067	-145	-4118	-9705	-815	-4382	-7	113	-43	677	52782	677	57731497
2162	-219	-4107	-9494	-736	-4211	-7	113	-43	678	52884	678	57731498
2175	-44	-3933	-9283	-676	-3987	-4	114	-38	679	52938	679	57731498
2010	93	-3724	-8975	-393	-3915	-4	114	-38	680	53040	680	57731501
1558	367	-3669	-8408	227	-3938	-17	113	-37	681	53094	681	57731501
1149	394	-3653	-7668	755	-3772	-17	113	-37	682	53196	682	57731505
1195	34	-3674	-6938	776	-3255	-19	113	-37	683	53250	683	57731506
1314	-226	-3922	-7254	152	-2735	-19	113	-37	684	53352	684	57731507
1428	284	-2784	-8592	-987	-2225	-30	114	-40	685	53406	685	57731513
1203	1144	-2505	-7614	-1735	-1815	-30	114	-40	686	53508	686	57731513
1139	1115	-2236	-5632	-1692	-1323	-27	117	-39	687	53562	687	57731547
1232	648	-1887	-3827	-1562	-1131	-27	117	-39	688	53664	688	57731548
1680	307	-1923	-1717	-1208	-1065	-33	115	-41	689	53718	689	57731550
2027	-82	-1485	-271	-1044	-1034	-33	115	-41	690	53820	690	57731551
2095	-11	-2045	1197	-1109	-932	-37	115	-39	691	53874	691	57731552
1714	-50	-2556	2287	-1120	-1019	-37	115	-39	692	53976	692	57731555
974	-1147	-1440	2842	-1282	-790	-31	117	-43	693	54030	693	57731555
221	-587	-1539	5967	-2261	-232	-31	117	-43	694	54132	694	57731557
808	1464	-4865	9244	-3297	787	-29	117	-39	695	54186	695	57731560
1452	1074	-6129	6741	-3989	797	-29	117	-39	696	54288	696	57731560
1969	619	-4962	2752	-4356	547	-24	124	-44	697	54342	697	57731595
2309	529	-3885	439	-4704	722	-24	124	-44	698	54444	698	57731596
2582	1220	-3673	-855	-4966	641	-24	122	-42	699	54498	699	57731597
2799	1239	-3819	-1552	-4736	491	-24	122	-42	700	54600	700	57731599
2546	1147	-3898	-1730	-3934	250	-30	130	-50	701	54654	701	57731599
2045	923	-4228	-1816	-3063	14	-30	130	-50	702	54756	702	57731602
1828	971	-4122	-2393	-2558	-104	-31	133	-55	703	54810	703	57731603
1911	501	-3921	-2652	-2027	-180	-31	133	-55	704	54912	704	57731606
1399	556	-3181	-2446	-1329	-224	-29	131	-49	705	54966	705	57731606
978	636	-3199	-1793	-1104	-11	-29	131	-49	706	55068	706	57731606
1125	737	-3325	-2189	-1273	114	-27	125	-53	707	55122	707	57731642
1448	532	-3345	-2198	-1109	548	-27	125	-53	708	55224	708	57731643
1637	810	-3771	-1360	-660	680	-35	133	-53	709	55278	709	57731646
1722	588	-4175	-784	-270	722	-35	133	-53	710	55380	710	57731647
1517	763	-4512	-1475	-462	494	-33	129	-59	711	55434	711	57731649
861	1793	-4385	-1604	-629	602	-33	129	-59	712	55536	712	57731650
702	1807	-4189	-2060	-1295	1155	-32	132	-52	713	55590	713	57731651
1392	821	-4188	-3087	-2261	1405	-32	132	-52	714	55692	714	57731656
1701	539	-4129	-3317	-2523	1449	-33	129	-55	715	55746	715	57731657
1291	1046	-3663	-2905	-2271	1633	-33	129	-55	716	55848	716	57731659
1001	1504	-3708	-3068	-2260	1855	-35	127	-55	717	55902	717	57731691
820	1677	-3713	-4151	-2441	2313	-35	127	-55	718	56004	718	57731691
1158	1223	-3511	-5261	-2677	3063	-38	138	-50	719	56058	719	57731695
1921	707	-3958	-5180	-2516	3737	-38	138	-50	720	56160	720	57731695
1890	1054	-4054	-4823	-1871	4108	-39	139	-57	721	56214	721	57731697
1665	1386	-4137	-4532	-1159	4509	-39	139	-57	722	56316	722	57731699
1558	1947	-4167	-4880	-840	4579	-43	135	-59	723	56370	723	57731699
1536	2069	-3801	-5531	-963	4765	-43	135	-59	724	56472	724	57731704
1868	2335	-3813	-5574	-1559	5274	-42	144	-58	725	56526	725	57731704
2375	2598	-3879	-5643	-2355	5836	-42	144	-58	726	56628	726	57731707
3308	2621	-3398	-5393	-2915	6228	-40	134	-56	727	56682	727	57731749
4660	3163	-3399	-3501	-3160	5879	-40	134	-56	728	56784	728	57731749
6154	3483	-4666	-980	-3225	6281	-41	135	-55	729	56838	729	57731752
6524	5024	-3401	-1766	-2962	6289	-41	135	-55	730	56940	730	57731752
7075	5600	-4057	-145	-1671	7276	-35	141	-65	731	56994	731	57731755
6606	5521	-3311	1117	-548	8699	-35	141	-65	732	57096	732	57731756
7136	4641	-5045	3785	522	10643	-34	134	-60	733	57150	733	57731756
6855	4246	-5772	2916	1345	11649	-34	134	-60	734	57252	734	57731760
6505	2895	-4291	971	1575	12936	-23	137	-63	735	57306	735	57731760
5634	2531	-3686	1977	1166	13756	-23	137	-63	736	57408	736	57731764
4323	2580	-3367	2802	235	14093	-19	131	-57	737	57462	737	57731764
3413	1906	-3057	2798	-1002	14437	-19	131	-57	738	57564	738	57731767
2595	1192	-3260	3155	-2486	14462	-7	137	-59	739	57618	739	57731800
1856	551	-3475	3712	-4320	13950	-7	137	-59	740	57720	740	57731800
1363	-482	-3687	4452	-6500	13076	-1	137	-63	741	57774	741	57731803
1346	-2671	-3489	5202	-8914	11410	-1	137	-63	742	57876	742	57731804
-80	-1484	-4022	5420	-11836	8466	3	149	-65	743	57930	743	57731806
-956	-53	-4041	5285	-14424	7020	3	149	-65	744	58032	744	57731808
-1669	63	-4106	5666	-16314	6177	9	157	-69	745	58086	745	57731808
-2394	-753	-3820	6091	-17544	5589	9	157	-69	746	58188	746	57731812
-3530	-1275	-3343	6579	-19012	4806	17	171	-75	747	58242	747	57731813
-3985	-1864	-2827	6907	-21262	3876	17	171	-75	748	58344	748	57731816
-4145	-2355	-2396	7327	-23865	2438	27	185	-77	749	58398	749	57731849
-4531	-2619	-1738	8015	-26407	680	27	185	-77	750	58500	750	57731851
-5309	-2478	-482	8445	-28503	-1234	27	201	-81	751	58554	751	57731852
-6522	-1898	1444	8619	-30110	-2889	27	201	-81	752	58656	752	57731858
-7474	-1265	1962	9170	-31251	-3565	33	231	-81	753	58710	753	57731859
-7671	-1611	1662	8953	-31474	-3539	33	231	-81	754	58812	754	57731859
-7390	-2565	1421	8000	-30985	-3549	43	251	-79	755	58866	755	57731860
-7328	-2307	1393	7281	-30357	-3726	43	251	-79	756	58968	756	57731861
-7706	-1553	1315	6041	-29933	-4158	47	261	-65	757	59022	757	57731868
-7860	-1693	1601	4494	-29484	-4436	47	261	-65	758	59124	758	57731896
-8293	-1941	1234	3599	-28617	-4721	51	273	-57	759	59178	759	57731896
-8683	-1908	854	2918	-27263	-5053	51	273	-57	760	59280	760	57731897
-8175	-1758	228	2546	-26297	-5312	56	290	-46	761	59334	761	57731900
-7131	-1120	-213	2329	-25970	-5547	56	290	-46	762	59436	762	57731900
-6709	-324	-91	1839	-25605	-6031	61	305	-43	763	59490	763	57731903
-6352	-6	112	1175	-25140	-6155	61	305	-43	764	59592	764	57731904
-5804	-277	239	517	-24674	-6055	64	312	-30	765	59646	765	57731906
-5326	-630	-180	653	-23885	-5840	64	312	-30	766	59748	766	57731911
-5054	-498	-1052	1427	-22484	-5768	70	312	-18	767	59802	767	57731913
-4852	-324	-2230	2146	-20596	-5548	70	312	-18	768	59904	768	57731921
-4522	-223	-3581	2585	-18254	-5286	73	319	-7	769	59958	769	57731923
-3932	-197	-4640	2642	-15586	-4970	73	319	-7	770	60060	770	57731925
-2940	-549	-5479	2496	-12739	-4732	75	323	7	771	60114	771	57731958
-1872	-903	-6160	2264	-9779	-4738	75	323	7	772	60216	772	57731958
-1434	-1355	-6799	1612	-6484	-5081	79	323	7	773	60270	773	57731961
-1387	-2036	-7433	-262	-2756	-5950	79	323	7	774	60372	774	57731962
-1644	-2831	-6926	-2763	1412	-7031	75	327	11	775	60426	775	57731964
-1821	-3199	-6617	-3578	5402	-8181	75	327	11	776	60528	776	57731965
-3319	-2091	-6602	-2596	8766	-9186	85	319	5	777	60582	777	57731965
-3239	-2524	-7570	-1535	10883	-9382	85	319	5	778	60684	778	57731970
-2277	-3387	-8374	-1738	12595	-9722	91	311	1	779	60738	779	57731970
-2121	-3667	-7927	-3136	14484	-10715	91	311	1	780	60840	780	57731973
-2223	-3078	-7246	-3710	15274	-11660	95	297	-7	781	60894	781	57732006
-2426	-3129	-7072	-2258	15229	-12053	95	297	-7	782	60996	782	57732007
-2110	-2600	-6926	-541	14336	-12074	99	287	-9	783	61050	783	57732010
-1317	-2640	-7361	412	13067	-11282	99	287	-9	784	61152	784	57732010
-2319	-2328	-6484	1400	12199	-10153	102	274	-22	785	61206	785	57732012
-2272	-2075	-6290	3497	10700	-8126	102	274	-22	786	61308	786	57732013
-1531	-2479	-5927	5934	8892	-5640	103	275	-19	787	61362	787	57732014
-1534	-2643	-4916	7504	7146	-3534	103	275	-19	788	61464	788	57732019
-1562	-2398	-4088	8707	5344	-1769	104	260	-10	789	61518	789	57732019
-1745	-2030	-3045	9581	3543	-147	104	260	-10	790	61620	790	57732054
-1856	-1825	-1962	10130	1873	1340	111	259	-7	791	61674	791	57732055
-2022	-1592	-680	10327	325	2385	111	259	-7	792	61776	792	57732057
-2390	-1460	422	10257	-1023	3244	111	257	-3	793	61830	793	57732058
-2713	-1246	1205	9880	-2209	3927	111	257	-3	794	61932	794	57732059
-2788	-1299	1789	9337	-3153	4389	113	269	5	795	61986	795	57732062
-2791	-1630	2305	8826	-3886	4615	113	269	5	796	62088	796	57732068
-2813	-1743	2638	8267	-4251	4368	113	271	9	797	62142	797	57732070
-2609	-1761	2812	7322	-4408	3963	113	271	9	798	62244	798	57732072
-2629	-1740	3124	4941	-4573	3223	113	273	21	799	62298	799	57732072
-2897	-1624	3210	2894	-4656	2640	113	273	21	800	62400	800	57732104
-2638	-1672	3396	1605	-4958	2446	120	274	22	801	62454	801	57732104
-2050	-2214	2541	635	-5788	2518	120	274	22	802	62556	802	57732106
-2748	-2338	1070	1782	-5680	2602	112	278	28	803	62610	803	57732108
-3181	-2411	1075	3520	-4558	2353	112	278	28	804	62712	804	57732108
-3105	-2343	1875	4261	-3135	2179	108	282	22	805	62766	805	57732111
-2912	-1916	2194	4347	-1738	2159	108	282	22	806	62868	806	57732112
-2309	-1570	2439	3948	-677	1952	110	286	28	807	62922	807	57732114
-2066	-1366	2560	3407	46	1437	110	286	28	808	63024	808	57732116
-2673	-1115	2339	2940	740	935	108	282	32	809	63078	809	57732117
-3027	-997	2132	2441	1401	1127	108	282	32	810	63180	810	57732151
-3001	-1252	2448	1954	2012	1461	113	277	35	811	63234	811	57732152
-3041	-1309	2806	1583	2526	1594	113	277	35	812	63336	812	57732154
-3377	-1546	3026	1059	2875	1611	110	284	34	813	63390	813	57732155
-3798	-2081	2931	382	3079	1246	110	284	34	814	63492	814	57732156
-4064	-2766	2503	-139	3101	769	111	285	27	815	63546	815	57732159
-3880	-3117	1945	-554	2788	122	111	285	27	816	63648	816	57732159
-3567	-3316	1465	-803	2095	-698	110	280	32	817	63702	817	57732162
-3441	-3480	864	-810	1343	-1475	110	280	32	818	63804	818	57732162
-3573	-3535	341	-647	451	-2522	111	283	33	819	63858	819	57732163
-3459	-3619	45	-447	-690	-3474	111	283	33	820	63960	820	57732200
-3573	-3746	-25	-85	-1962	-4278	112	280	34	821	64014	821	57732213
-3918	-3655	84	616	-3059	-4698	112	280	34	822	64116	822	57732216
-4169	-3701	377	1314	-4129	-4536	118	280	32	823	64170	823	57732216
-4390	-3598	676	1744	-5168	-4112	118	280	32	824	64272	824	57732217
-4291	-3568	884	1662	-6186	-3710	116	276	30	825	64326	825	57732217
-3953	-3608	1014	1319	-6991	-3301	116	276	30	826	64428	826	57732217
-3925	-3474	979	876	-7275	-3109	118	272	42	827	64482	827	57732217
-3190	-3763	1387	15	-7306	-2757	118	272	42	828	64584	828	57732217
-3635	-3366	975	-513	-7108	-2253	113	275	31	829	64638	829	57732218
-3754	-3144	686	-1194	-6892	-1478	113	275	31	830	64740	830	57732248
-5361	37	1314	-2590	-6916	-619	118	268	40	831	64794	831	57732248
-3961	-2091	6334	-12392	-8453	-613	118	268	40	832	64896	832	57732251
-1920	-4417	686	-11730	-5156	-732	120	276	32	833	64950	833	57732251
-3076	-2140	-1560	-7093	-1872	-2265	120	276	32	834	65052	834	57732254
-2489	-3262	-2727	-9442	-1347	-2662	116	270	24	835	65106	835	57732255
-3298	-4073	-3616	-10707	-1336	-1228	116	270	24	836	65208	836	57732258
-3545	-4783	-3967	-10667	-1764	440	112	276	18	837	65262	837	57732260
-3883	-3867	-3750	-9784	-1896	1749	112	276	18	838	65364	838	57732260
-3581	-3936	-3511	-8681	-1650	2756	117	275	21	839	65418	839	57732296
-3333	-4055	-3624	-7290	-580	3454	117	275	21	840	65520	840	57732297
-3407	-3815	-4036	-5646	1011	4074	120	278	16	841	65574	841	57732298
-3629	-2925	-4851	-3848	2423	4720	120	278	16	842	65676	842	57732299
-2706	-3986	-4953	-2327	3696	5719	106	280	6	843	65730	843	57732299
-3076	-3381	-5685	-368	5208	6712	106	280	6	844	65832	844	57732303
-3404	-1621	-6718	1077	6810	8177	111	279	1	845	65886	845	57732303
-2197	-1967	-6690	1129	8702	10526	111	279	1	846	65988	846	57732305
-979	-6723	-2127	1741	11082	12186	104	284	2	847	66042	847	57732310
252	-8503	-1134	7617	11746	10766	104	284	2	848	66144	848	57732311
177	-5706	-2648	16228	10641	7057	105	285	11	849	66198	849	57732345
-608	-3946	-6366	23367	9367	3390	105	285	11	850	66300	850	57732345
256	-4970	-7087	25482	8916	825	111	283	21	851	66354	851	57732347
1366	-4112	-6497	23958	8650	-679	111	283	21	852	66456	852	57732349
965	-2775	-5675	19735	8101	-1345	111	287	29	853	66510	853	57732349
96	-3041	-4918	14735	8163	-761	111	287	29	854	66612	854	57732352
-976	-3567	-3877	10541	8589	-746	110	284	34	855	66666	855	57732353
-1508	-4070	-2533	7706	8826	-994	110	284	34	856	66768	856	57732355
-2708	-4693	-2021	6767	8299	-1133	114	286	34	857	66822	857	57732358
-3435	-5042	-1926	6928	6828	-570	114	286	34	858	66924	858	57732358
-3535	-5158	-1755	7663	4723	372	114	282	46	859	66978	859	57732389
-3536	-4925	-1670	8851	2445	1444	114	282	46	860	67080	860	57732389
-3677	-4696	-1520	10142	413	2473	116	288	52	861	67134	861	57732392
-3589	-3807	-1166	11217	-1243	3342	116	288	52	862	67236	862	57732392
-3575	-3102	-977	12194	-2609	4207	110	286	56	863	67290	863	57732393
-3142	-2205	-849	12933	-3587	4984	110	286	56	864	67392	864	57732396
-2375	-1614	-289	13402	-4201	5606	104	290	62	865	67446	865	57732396
-2313	-1484	-582	14025	-4636	6297	104	290	62	866	67548	866	57732405
-2297	-1150	-699	14569	-5074	6769	104	286	78	867	67602	867	57732405
-2454	-974	-324	15351	-5092	7102	104	286	78	868	67704	868	57732409
-2972	-1873	354	16500	-4840	6451	99	295	87	869	67758	869	57732441
-3278	-771	753	17315	-4325	4485	99	295	87	870	67860	870	57732442
-3250	-53	2297	17404	-3763	2743	98	296	102	871	67914	871	57732446
-3229	1568	2901	16992	-3328	697	98	296	102	872	68016	872	57732446
-3649	3302	4386	16076	-2267	-1538	93	293	103	873	68070	873	57732447
-4077	4733	4168	15959	-905	-2909	93	293	103	874	68172	874	57732449
-3800	4863	6270	14677	903	-3607	85	293	115	875	68226	875	57732449
-4696	4706	4010	14418	1812	-4444	85	293	115	876	68328	876	57732453
-4645	4911	4522	13120	3498	-4905	85	293	123	877	68382	877	57732453
-4341	5029	3407	11883	3884	-6507	85	293	123	878	68484	878	57732457
-4680	4886	4136	10892	5177	-8339	78	288	132	879	68538	879	57732489
-4998	5959	4861	10403	6017	-9785	78	288	132	880	68640	880	57732489
-4882	6889	6368	8811	4667	-10281	76	290	136	881	68694	881	57732492
-4984	5706	5069	3476	1403	-10019	76	290	136	882	68796	882	57732493
-5523	3320	2383	-3606	-1219	-9487	85	285	131	883	68850	883	57732495
-6792	2398	336	-7219	-2210	-9174	85	285	131	884	68952	884	57732496
-6977	1816	122	-7754	-2132	-9019	85	279	127	885	69006	885	57732496
-5911	978	787	-6964	-1620	-8376	85	279	127	886	69108	886	57732501
-4667	-690	1952	-5900	-1030	-7496	91	269	127	887	69162	887	57732501
-4194	-1950	1634	-4105	-641	-7260	91	269	127	888	69264	888	57732537
-3954	-2717	526	-2116	-570	-7463	103	265	131	889	69318	889	57732543
-3914	-3441	-799	-710	-505	-7361	103	265	131	890	69420	890	57732547
-3620	-4256	-1475	-8	38	-7158	94	266	124	891	69474	891	57732547
-2751	-4474	-1414	656	1110	-7200	94	266	124	892	69576	892	57732547
-1362	-5413	-487	1295	2129	-7373	100	262	124	893	69630	893	57732548
-360	-5935	-126	2745	2762	-8220	100	262	124	894	69732	894	57732548
605	-7418	1583	5012	3127	-8937	101	265	125	895	69786	895	57732549
1675	-6764	0	9594	3467	-9364	101	265	125	896	69888	896	57732552
2495	-7387	-134	13206	4292	-9146	102	254	130	897	69942	897	57732552
3215	-7239	322	15528	4405	-8658	102	254	130	898	70044	898	57732587
3733	-6705	575	15750	3938	-7943	95	253	147	899	70098	899	57732588
3605	-6307	974	13652	3123	-7266	95	253	147	900	70200	900	57732589
3886	-6671	912	10025	1850	-7336	87	247	153	901	70254	901	57732590
3572	-6741	668	6020	542	-8450	87	247	153	902	70356	902	57732591
3674	-6614	-57	1940	-343	-9663	82	246	150	903	70410	903	57732594
3050	-7422	1309	-2238	-638	-10890	82	246	150	904	70512	904	57732601
2441	-7780	2762	-4778	-1009	-12028	82	238	146	905	70566	905	57732603
1824	-6745	3233	-5312	-1190	-12538	82	238	146	906	70668	906	57732608
-170	-5643	4020	-4603	-1442	-12224	83	225	153	907	70722	907	57732612
-537	-5177	3637	-3405	-1802	-10812	83	225	153	908	70824	908	57732634
-1084	-4543	3711	-2638	-1815	-9049	96	222	148	909	70878	909	57732634
-1406	-3844	4522	-2243	-2494	-6882	96	222	148	910	70980	910	57732636
-701	-3832	4251	-1717	-3579	-4764	98	214	150	911	71034	911	57732638
368	-4081	2884	-899	-4564	-3088	98	214	150	912	71136	912	57732638
744	-4155	1969	-158	-5364	-2076	98	216	146	913	71190	913	57732641
903	-4111	2399	193	-6119	-1613	98	216	146	914	71292	914	57732641
499	-4023	2376	487	-7019	-1425	90	212	146	915	71346	915	57732646
802	-3816	2151	508	-7927	-977	90	212	146	916	71448	916	57732646
877	-3872	1717	790	-8085	-122	95	201	149	917	71502	917	57732648
850	-3843	1211	1337	-7921	770	95	201	149	918	71604	918	57732681
1237	-4485	1391	1626	-7764	1186	90	196	148	919	71658	919	57732682
2081	-5383	1770	2430	-7722	612	90	196	148	920	71760	920	57732685
-31	-4673	789	5535	-7208	-1515	90	194	148	921	71814	921	57732685
-2164	-3052	457	8176	-5801	-2965	90	194	148	922	71916	922	57732687
-2681	-2777	176	8337	-3934	-2766	84	194	150	923	71970	923	57732689
-1965	-2946	401	6500	-2733	-1527	84	194	150	924	72072	924	57732689
-958	-3955	1220	5117	-1377	-457	85	189	153	925	72126	925	57732697
-716	-3735	2988	7773	139	-511	85	189	153	926	72228	926	57732698
-1020	-3363	3208	9274	-9	-1635	79	189	155	927	72282	927	57732698
-1185	-3432	3038	8027	-578	-1998	79	189	155	928	72384	928	57732730
-1206	-3699	2932	5344	-1362	-2005	75	181	161	929	72438	929	57732731
-1264	-3146	2758	3727	-1573	-1916	75	181	161	930	72540	930	57732734
-1600	-2388	2322	3702	-976	-1653	70	190	152	931	72594	931	57732735
-1769	-1470	1928	4052	124	-913	70	190	152	932	72696	932	57732736
-2072	-1102	1885	3875	1088	225	67	189	161	933	72750	933	57732738
-1837	-1369	2120	3207	1709	1221	67	189	161	934	72852	934	57732738
-1763	-1658	2276	2667	2324	1968	64	188	172	935	72906	935	57732743
-2057	-1770	2256	2555	3107	2652	64	188	172	936	73008	936	57732744
-1966	-2186	2906	2793	3924	3427	66	194	170	937	73062	937	57732746
-1831	-3030	3772	3413	4428	4122	66	194	170	938	73164	938	57732779
-2705	-3494	4146	4362	4763	4606	66	194	164	939	73218	939	57732779
-4043	-3026	4216	5002	5152	5390	66	194	164	940	73320	940	57732783
-3496	-2225	4919	4750	5592	6117	59	207	163	941	73374	941	57732783
-4999	-2141	3896	4684	6585	6378	59	207	163	942	73476	942	57732786
-3600	-3693	3456	5275	6715	6869	55	207	171	943	73530	943	57732787
-1898	-3088	2496	6325	6326	7980	55	207	171	944	73632	944	57732789
-1288	-2047	2429	6602	6630	9445	59	217	171	945	73686	945	57732791
-2172	-1697	2997	6873	7435	10977	59	217	171	946	73788	946	57732792
-2768	-1726	3247	7593	8080	12207	52	224	170	947	73842	947	57732826
-1482	-2038	3314	8464	9117	13518	52	224	170	948	73944	948	57732827
-1967	-1133	2360	8664	10381	14921	43	239	181	949	73998	949	57732829
-2239	-1106	2507	7854	11393	16407	43	239	181	950	74100	950	57732830
-4513	551	1568	6090	11640	18329	30	252	172	951	74154	951	57732830
-5594	1461	4842	4368	11177	19006	30	252	172	952	74256	952	57732834
-5429	363	5760	7461	10509	20618	26	262	176	953	74310	953	57732834
-4584	-1826	3519	10553	9483	20752	26	262	176	954	74412	954	57732836
-3978	-1703	3363	6932	7838	18394	7	279	175	955	74466	955	57732841
-4947	-529	6344	2309	5223	17481	7	279	175	956	74568	956	57732842
-4595	-1812	5668	2513	2533	18135	10	282	180	957	74622	957	57732876
-3830	-2740	3252	5249	1523	18298	10	282	180	958	74724	958	57732879
-1902	-3787	2195	6316	1484	17466	4	282	180	959	74778	959	57732880
-672	-3972	2288	5948	1618	15300	4	282	180	960	74880	960	57732880
-57	-3605	1878	5846	1647	13145	-6	288	168	961	74934	961	57732881
-34	-3033	1443	6059	1985	11164	-6	288	168	962	75036	962	57732884
-1373	-552	813	5948	2540	9474	-16	290	178	963	75090	963	57732888
-2292	819	899	5031	3284	8705	-16	290	178	964	75192	964	57732888
-2608	1074	1012	4786	4455	8346	-24	294	172	965	75246	965	57732889
-2428	1019	1267	4373	5377	7904	-24	294	172	966	75348	966	57732891
-2205	560	1467	3788	5890	7415	-28	290	176	967	75402	967	57732923
-2273	100	1656	3216	6054	6878	-28	290	176	968	75504	968	57732926
-2401	-249	1676	2906	6135	6271	-31	299	175	969	75558	969	57732927
-2342	-467	1571	2922	6451	5657	-31	299	175	970	75660	970	57732928
-2085	-157	1298	3097	6984	5119	-41	305	161	971	75714	971	57732929
-1810	126	1078	2902	7547	4585	-41	305	161	972	75816	972	57732931
-1825	153	954	2472	8000	4094	-42	312	164	973	75870	973	57732931
-1889	304	739	2088	8252	3279	-42	312	164	974	75972	974	57732936
-1663	555	711	1480	8318	2363	-44	308	160	975	76026	975	57732940
-1602	497	938	530	8105	1274	-44	308	160	976	76128	976	57732941
-1843	361	1275	-487	7369	-237	-46	314	158	977	76182	977	57732971
-2143	323	1367	-1203	6200	-2103	-46	314	158	978	76284	978	57732972
-2252	554	1324	-1799	4692	-4125	-40	324	158	979	76338	979	57732975
-1909	833	1269	-2438	2717	-6365	-40	324	158	980	76440	980	57732975
-1355	1083	912	-3057	417	-9030	-42	322	150	981	76494	981	57732977
-1539	1178	162	-3814	-2001	-12381	-42	322	150	982	76596	982	57732979
-2209	1011	1	-4893	-4031	-15786	-30	322	154	983	76650	983	57732979
-2906	691	721	-6128	-5533	-18513	-30	322	154	984	76752	984	57732984
-2516	-32	1648	-7124	-6671	-19890	-13	317	161	985	76806	985	57732985
-1508	-1892	2430	-7161	-6958	-20242	-13	317	161	986	76908	986	57732986
508	-1662	1385	-6865	-7751	-21210	2	312	166	987	76962	987	57733030
-1444	-2993	2244	-8327	-8109	-23622	2	312	166	988	77064	988	57733032
-3351	-4854	2469	-8194	-8057	-23946	17	303	169	989	77118	989	57733033
-1356	-3974	959	-7925	-8308	-24016	17	303	169	990	77220	990	57733034
-10106	-247	4591	-9426	-8009	-24904	24	292	162	991	77274	991	57733036
-991	-3462	6232	-5555	-7632	-20183	24	292	162	992	77376	992	57733037
-1402	-5192	1673	-816	-5709	-19924	36	286	164	993	77430	993	57733041
-1557	-4505	1888	-3808	-8340	-23314	36	286	164	994	77532	994	57733042
-362	-5013	4006	-5495	-10817	-25207	45	271	165	995	77586	995	57733043
-60	-5642	4939	-3442	-12323	-27078	45	271	165	996	77688	996	57733044
71	-6912	5559	132	-13675	-28172	59	247	175	997	77742	997	57733051
61	-7374	5491	3186	-15253	-28517	59	247	175	998	77844	998	57733051
1243	-8315	5495	5657	-16398	-28192	57	233	183	999	77898	999	57733080
56	-7712	5551	9070	-16675	-27082	57	233	183	1000	78000	1000	57733080
98	-7070	5952	10650	-17615	-25636	51	213	183	1001	78054	1001	57733084
852	-6739	6204	10747	-18632	-24307	51	213	183	1002	78156	1002	57733084
944	-6311	6184	11228	-19400	-23218	42	194	180	1003	78210	1003	57733086
936	-5822	5638	12433	-20523	-22574	42	194	180	1004	78312	1004	57733087
440	-4920	5040	14566	-21711	-21850	25	173	179	1005	78366	1005	57733088
7	-4007	4477	16363	-23142	-20801	25	173	179	1006	78468	1006	57733092
-683	-3100	4405	15918	-25005	-19328	10	144	176	1007	78522	1007	57733093
-1131	-2076	4384	12555	-27269	-17318	10	144	176	1008	78624	1008	57733096
-1101	-1436	4764	7248	-29328	-14734	1	129	169	1009	78678	1009	57733129
-773	-1714	5148	2102	-30708	-12336	1	129	169	1010	78780	1010	57733130
-176	-876	4694	-1161	-31009	-10633	-14	116	154	1011	78834	1011	57733132
79	218	3800	-3357	-30054	-9176	-14	116	154	1012	78936	1012	57733133
595	347	2807	-5362	-28042	-7390	-15	97	135	1013	78990	1013	57733141
1376	517	2139	-6659	-25022	-5713	-15	97	135	1014	79092	1014	57733143
1844	466	1100	-7015	-21183	-4232	-20	90	116	1015	79146	1015	57733146
1828	215	851	-7299	-16752	-2967	-20	90	116	1016	79248	1016	57733147
1686	105	888	-7042	-12419	-1739	-22	78	106	1017	79302	1017	57733147
1958	-213	987	-5937	-8065	-891	-22	78	106	1018	79404	1018	57733176
2698	11	865	-4232	-3328	-249	-12	84	106	1019	79458	1019	57733177
3473	168	395	-2334	1900	456	-12	84	106	1020	79560	1020	57733177
3427	-107	340	-832	7003	1295	-18	86	100	1021	79614	1021	57733180
3462	-250	568	527	11244	2182	-18	86	100	1022	79716	1022	57733181
3434	1	707	1845	14798	3286	-23	85	101	1023	79770	1023	57733184
2771	27	1116	2543	18250	4495	-23	85	101	1024	79872	1024	57733184
2121	-2	1460	2867	21824	5958	-19	93	119	1025	79926	1025	57733186
2017	-177	1968	3053	25529	7598	-19	93	119	1026	80028	1026	57733191
1161	-1236	2556	3862	29709	9273	-14	102	140	1027	80082	1027	57733192
685	-1543	2441	5505	32767	11100	-14	102	140	1028	80184	1028	57733226
563	-941	2434	6751	32767	13352	-9	111	157	1029	80238	1029	57733227
213	-680	2878	7236	32767	16063	-9	111	157	1030	80340	1030	57733228
-647	-558	3045	7929	32767	19100	-6	148	168	1031	80394	1031	57733230
-1327	-501	4034	9274	32767	22239	-6	148	168	1032	80496	1032	57733230
-1311	-1367	2798	12742	32767	25338	-8	184	180	1033	80550	1033	57733234
-3755	-1306	1789	14106	32767	26309	-8	184	180	1034	80652	1034	57733235
-4905	-364	2124	12005	32767	26932	-15	217	185	1035	80706	1035	57733236
-5222	348	1795	10427	32767	28187	-15	217	185	1036	80808	1036	57733242
-5311	243	2098	9935	32767	29731	-25	251	181	1037	80862	1037	57733242
-5764	800	3412	9871	32767	30968	-25	251	181	1038	80964	1038	57733251
-4735	226	1660	11266	32767	32354	-38	296	176	1039	81018	1039	57733252
-4981	1014	2160	12476	32767	32767	-38	296	176	1040	81120	1040	57733256
-3166	753	418	14091	32767	32767	-63	317	149	1041	81174	1041	57733287
672	-1083	-3906	15803	32767	32767	-63	317	149	1042	81276	1042	57733287
3953	-2339	-6619	16217	32767	32767	-84	340	120	1043	81330	1043	57733291
-9746	5628	-4814	12751	32767	32122	-84	340	120	1044	81432	1044	57733292
-13028	9369	-11443	460	32767	32061	-100	350	84	1045	81486	1045	57733294
-9150	2715	3019	-7697	32767	29687	-100	350	84	1046	81588	1046	57733295
-4357	3123	2919	-2069	32767	21931	-120	334	64	1047	81642	1047	57733296
-1226	2749	1308	1276	29365	15533	-120	334	64	1048	81744	1048	57733298
2343	958	1486	685	21579	11664	-121	321	49	1049	81798	1049	57733299
2471	41	298	592	15269	7641	-121	321	49	1050	81900	1050	57733301
1846	168	454	-941	9351	3536	-128	316	36	1051	81954	1051	57733335
1334	794	1679	-3416	2424	-1468	-128	316	36	1052	82056	1052	57733336
1634	1052	3115	-4868	-5607	-6903	-133	319	39	1053	82110	1053	57733337
1469	81	3186	-4578	-14490	-12726	-133	319	39	1054	82212	1054	57733337
658	-1688	3558	-3101	-23405	-18422	-130	324	46	1055	82266	1055	57733341
-1737	156	731	-562	-31163	-23367	-130	324	46	1056	82368	1056	57733341
-3492	775	-2100	-442	-32768	-26099	-116	332	68	1057	82422	1057	57733343
-4886	404	-1798	-2638	-32768	-27043	-116	332	68	1058	82524	1058	57733349
-5991	602	-884	-4695	-32768	-27338	-89	333	97	1059	82578	1059	57733349
-6122	603	-192	-6816	-32768	-27195	-89	333	97	1060	82680	1060	57733383
-5370	-1610	1650	-9333	-32768	-26726	-72	332	122	1061	82734	1061	57733384
-5192	-2788	4302	-9181	-32768	-26303	-72	332	122	1062	82836	1062	57733386
-4270	-3170	6267	-7993	-32768	-25133	-57	321	147	1063	82890	1063	57733388
-3291	-3948	8186	-7110	-32768	-23782	-57	321	147	1064	82992	1064	57733389
-2461	-4798	9322	-6361	-32768	-22803	-38	306	160	1065	83046	1065	57733391
-1452	-5287	10221	-5875	-32768	-22226	-38	306	160	1066	83148	1066	57733400
-680	-5883	10711	-5311	-32768	-21898	-28	288	180	1067	83202	1067	57733408
-617	-6004	10582	-4520	-32768	-21826	-28	288	180	1068	83304	1068	57733408
-1080	-5591	9626	-3621	-32768	-21732	-20	262	194	1069	83358	1069	57733408
-1739	-5082	8664	-3007	-32768	-21601	-20	262	194	1070	83460	1070	57733431
-2289	-4389	7756	-2550	-32768	-21387	-7	233	203	1071	83514	1071	57733431
-2504	-3802	7183	-2310	-32768	-20977	-7	233	203	1072	83616	1072	57733433
-2616	-3438	7378	-2210	-32768	-20485	-8	206	200	1073	83670	1073	57733435
-2931	-3081	6905	-1848	-32768	-19837	-8	206	200	1074	83772	1074	57733435
-3192	-2717	6691	-1459	-32768	-19017	-12	180	192	1075	83826	1075	57733439
-3567	-1731	5809	-987	-32768	-17873	-12	180	192	1076	83928	1076	57733439
-3698	-983	4843	-784	-32768	-16750	-13	161	185	1077	83982	1077	57733441
-3538	-335	3960	-839	-32768	-15415	-13	161	185	1078	84084	1078	57733444
-3127	109	2852	-894	-32768	-13730	-17	135	177	1079	84138	1079	57733444
-2320	261	1926	-914	-30416	-11987	-17	135	177	1080	84240	1080	57733480
-1345	688	790	-524	-26820	-10221	-25	119	159	1081	84294	1081	57733480
-339	1215	-359	-57	-22037	-8601	-25	119	159	1082	84396	1082	57733484
202	1244	-1302	168	-16412	-6919	-33	107	147	1083	84450	1083	57733484
49	879	-2640	795	-11244	-5599	-33	107	147	1084	84552	1084	57733486
2743	1783	-3327	1543	-7154	-4685	-40	106	132	1085	84606	1085	57733487
4977	2459	-3666	1297	-1398	-3031	-40	106	132	1086	84708	1086	57733488
4882	1137	-2787	476	4666	-1344	-42	104	132	1087	84762	1087	57733492
4461	297	-1636	198	9169	157	-42	104	132	1088	84864	1088	57733493
4174	-55	-446	484	12465	1085	-38	104	140	1089	84918	1089	57733496
3955	-417	135	1102	15338	1460	-38	104	140	1090	85020	1090	57733528
3620	-330	126	1897	18422	1837	-40	106	148	1091	85074	1091	57733529
3605	407	-109	2515	21984	2648	-40	106	148	1092	85176	1092	57733532
3100	802	-123	2375	25882	3853	-40	124	158	1093	85230	1093	57733532
1828	404	193	1725	29740	5100	-40	124	158	1094	85332	1094	57733535
397	-39	468	1492	32767	6207	-37	143	167	1095	85386	1095	57733536
-786	292	125	2043	32767	7423	-37	143	167	1096	85488	1096	57733537
-1846	770	-324	2290	32767	8814	-38	166	182	1097	85542	1097	57733541
-3539	1190	-141	2289	32767	10483	-38	166	182	1098	85644	1098	57733544
-4761	1556	-135	2540	32767	11974	-41	201	185	1099	85698	1099	57733546
-10449	-2678	3738	3537	32767	13935	-41	201	185	1100	85800	1100	57733578
-9731	128	2090	8101	32767	15338	-43	233	185	1101	85854	1101	57733579
-9297	5257	-4350	10829	32767	14571	-43	233	185	1102	85956	1102	57733582
-9372	4475	-4652	6191	32767	15565	-60	276	174	1103	86010	1103	57733582
-7314	2779	-2628	820	32767	18001	-60	276	174	1104	86112	1104	57733584
-6787	2972	-3287	-557	32767	20033	-56	306	152	1105	86166	1105	57733585
-9260	3174	-4430	-1153	32767	21855	-56	306	152	1106	86268	1106	57733587
-12216	3205	-4408	-2565	32767	23192	-67	339	127	1107	86322	1107	57733591
-13862	4035	-3430	-4920	32767	23088	-67	339	127	1108	86424	1108	57733592
-12100	3562	-2477	-6663	32767	21443	-81	353	99	1109	86478	1109	57733626
-9920	2957	-2848	-6196	32767	19466	-81	353	99	1110	86580	1110	57733627
-7404	2562	-3101	-5966	32767	16979	-88	356	72	1111	86634	1111	57733627
-5779	1744	-2600	-6218	32767	14239	-88	356	72	1112	86736	1112	57733629
-5521	1258	-2230	-6535	32767	11786	-100	356	48	1113	86790	1113	57733629
-5407	660	-1463	-6609	31803	10013	-100	356	48	1114	86892	1114	57733633
-5438	44	-588	-6656	28690	8568	-104	342	32	1115	86946	1115	57733633
-4809	31	-1060	-5989	25273	7143	-104	342	32	1116	87048	1116	57733635
-4064	-368	-951	-5700	22015	5573	-110	338	26	1117	87102	1117	57733640
-3639	-786	478	-5701	18310	3587	-110	338	26	1118	87204	1118	57733640
-3256	-999	1967	-4717	13670	1072	-109	329	21	1119	87258	1119	57733670
-2209	-465	3235	-2436	7180	-1910	-109	329	21	1120	87360	1120	57733671
-479	1469	2448	2264	-3093	-6072	-116	328	6	1121	87414	1121	57733672
-1961	-80	2144	5493	-12524	-11168	-116	328	6	1122	87516	1122	57733676
-3921	-2324	4554	3944	-18185	-14121	-108	334	12	1123	87570	1123	57733679
-4270	-1061	4791	3356	-24594	-15794	-108	334	12	1124	87672	1124	57733679
-5021	-613	4139	4239	-31467	-17851	-98	340	32	1125	87726	1125	57733681
-6537	-1223	4111	4521	-32768	-20587	-98	340	32	1126	87828	1126	57733681
-8032	-2036	4754	4341	-32768	-23004	-90	344	54	1127	87882	1127	57733689
-9350	-2715	5497	4779	-32768	-23891	-90	344	54	1128	87984	1128	57733689
-9481	-3521	5385	6423	-32768	-23498	-64	352	88	1129	88038	1129	57733723
-10135	-3543	6835	7179	-32768	-23189	-64	352	88	1130	88140	1130	57733724
-9775	-3508	5945	6997	-32768	-23288	-47	329	127	1131	88194	1131	57733728
-8759	-4113	6402	4464	-32768	-23717	-47	329	127	1132	88296	1132	57733729
-7465	-4106	6839	3059	-32768	-23864	-35	315	163	1133	88350	1133	57733729
-6018	-3921	6594	2906	-32768	-23938	-35	315	163	1134	88452	1134	57733731
-4698	-2994	5921	2614	-32768	-23938	-27	275	185	1135	88506	1135	57733732
-3706	-3557	6028	2061	-32768	-23555	-27	275	185	1136	88608	1136	57733737
-3443	-3243	5809	1956	-32768	-22775	-25	239	193	1137	88662	1137	57733737
-2992	-2708	5742	1392	-32768	-21363	-25	239	193	1138	88764	1138	57733738
-2935	-2417	5953	904	-32768	-19580	-26	194	198	1139	88818	1139	57733771
-3426	-1760	5778	875	-32768	-17608	-26	194	198	1140	88920	1140	57733771
-4470	-1018	5239	779	-32768	-15253	-36	162	192	1141	88974	1141	57733775
-5488	-291	4363	574	-32768	-13037	-36	162	192	1142	89076	1142	57733775
-5758	757	2622	437	-32768	-11134	-41	145	163	1143	89130	1143	57733777
-4374	1674	1061	118	-32768	-9496	-41	145	163	1144	89232	1144	57733779
-2867	1729	-464	202	-28375	-8078	-46	122	148	1145	89286	1145	57733779
-2727	2513	-2853	983	-21264	-6422	-46	122	148	1146	89388	1146	57733783
-1676	2757	-4604	1118	-13637	-4216	-48	110	144	1147	89442	1147	57733797
-67	2618	-4749	619	-5584	-1734	-48	110	144	1148	89544	1148	57733798
1192	2122	-3944	449	2529	113	-53	101	141	1149	89598	1149	57733819
1750	1770	-2868	594	10047	1261	-53	101	141	1150	89700	1150	57733819
2184	1291	-1982	618	16311	2387	-54	110	140	1151	89754	1151	57733823
2473	914	-1246	389	21504	3417	-54	110	140	1152	89856	1152	57733823
2378	662	-321	15	26299	4528	-52	122	146	1153	89910	1153	57733825
1782	278	470	-272	30970	5614	-52	122	146	1154	90012	1154	57733826
954	217	848	-493	32767	6615	-52	136	158	1155	90066	1155	57733827
-440	-294	1648	-1017	32767	8018	-52	136	158	1156	90168	1156	57733831
-2033	-913	2551	-1510	32767	9424	-46	162	180	1157	90222	1157	57733832
-3480	-1051	2550	-1436	32767	10775	-46	162	180	1158	90324	1158	57733835
-5045	-1106	2906	-1692	32767	11936	-46	196	188	1159	90378	1159	57733868
-6307	-1091	2809	-1997	32767	13362	-46	196	188	1160	90480	1160	57733868
-7270	-1102	2953	-1915	32767	15101	-41	237	187	1161	90534	1161	57733872
-8972	-1345	2499	-1563	32767	17015	-41	237	187	1162	90636	1162	57733872
-10719	-2300	2033	-674	32767	19169	-45	277	173	1163	90690	1163	57733876
-9838	160	-765	-458	32767	20852	-45	277	173	1164	90792	1164	57733878
-10381	104	-1907	-3191	32767	21946	-51	325	149	1165	90846	1165	57733879
-10405	177	-1751	-6040	32767	22682	-51	325	149	1166	90948	1166	57733881
-8802	2212	-2200	-8532	32767	21515	-61	351	117	1167	91002	1167	57733881
-8405	2119	-2977	-11169	32767	19817	-61	351	117	1168	91104	1168	57733915
-7941	622	-2143	-12780	32767	18158	-63	361	91	1169	91158	1169	57733915
-7512	571	-3738	-15428	32767	16288	-63	361	91	1170	91260	1170	57733917
-7063	2107	-1031	-17967	32767	15549	-74	366	64	1171	91314	1171	57733919
-5238	2407	594	-17560	32767	15074	-74	366	64	1172	91416	1172	57733919
-2910	1915	432	-14841	32767	13806	-91	363	39	1173	91470	1173	57733922
-918	670	167	-11612	31217	11503	-91	363	39	1174	91572	1174	57733922
374	-472	57	-7904	26292	7997	-97	351	23	1175	91626	1175	57733925
689	-1372	1815	-4228	20891	3434	-97	351	23	1176	91728	1176	57733930
853	-1590	6915	-2416	12525	-2152	-96	342	14	1177	91782	1177	57733931
835	-2488	8711	-239	1111	-7530	-96	342	14	1178	91884	1178	57733965
-1871	-1920	8695	4982	-9495	-12715	-91	341	15	1179	91938	1179	57733965
-3474	-2899	8017	9735	-19853	-16431	-91	341	15	1180	92040	1180	57733967
-5229	-3309	7221	13357	-29237	-19045	-81	347	23	1181	92094	1181	57733969
-7081	-3829	5861	15447	-32768	-20382	-81	347	23	1182	92196	1182	57733969
-9175	-4216	4473	16169	-32768	-21444	-63	357	41	1183	92250	1183	57733972
-11006	-5119	4124	16095	-32768	-22409	-63	357	41	1184	92352	1184	57733973
-12534	-5024	4344	15951	-32768	-22741	-46	362	74	1185	92406	1185	57733975
-12977	-4636	4497	15168	-32768	-22203	-46	362	74	1186	92508	1186	57733977
-12017	-4968	5169	13635	-32768	-21320	-31	343	113	1187	92562	1187	57733978
-11255	-4394	4952	12592	-32768	-20622	-31	343	113	1188	92664	1188	57734013
-9870	-3938	4679	11150	-32768	-19765	-23	317	151	1189	92718	1189	57734019
-8279	-3524	4118	9309	-32768	-18845	-23	317	151	1190	92820	1190	57734019
-6888	-3185	3593	7499	-32768	-18147	-20	296	172	1191	92874	1191	57734020
-6100	-2490	3230	5879	-32768	-17667	-20	296	172	1192	92976	1192	57734020
-5420	-1684	2922	4524	-32768	-17129	-19	257	197	1193	93030	1193	57734020
-5115	-1381	2537	3351	-32768	-16642	-19	257	197	1194	93132	1194	57734021
-5104	-988	1945	2380	-32768	-16271	-16	222	196	1195	93186	1195	57734025
-4130	-407	1043	1325	-32768	-15523	-16	222	196	1196	93288	1196	57734025
-3202	182	407	415	-32768	-14430	-20	184	200	1197	93342	1197	57734026
-3161	598	597	237	-32768	-12988	-20	184	200	1198	93444	1198	57734060
-2574	587	185	1107	-32768	-11346	-24	162	192	1199	93498	1199	57734063
-917	620	-800	2393	-29461	-9018	-24	162	192	1200	93600	1200	57734067
901	1130	-2082	3768	-20309	-6015	-30	140	176	1201	93654	1201	57734068
3557	2300	-4127	4373	-8297	-2066	-30	140	176	1202	93756	1202	57734068
2816	1178	-2404	3875	6264	2505	-39	139	169	1203	93810	1203	57734068
2475	580	-1400	3026	20849	6093	-39	139	169	1204	93912	1204	57734069
1943	259	-885	2279	32767	8927	-40	152	172	1205	93966	1205	57734072
74	-355	-484	1855	32767	11271	-40	152	172	1206	94068	1206	57734073
-4533	-411	1162	1507	32767	13306	-35	181	185	1207	94122	1207	57734076
-3975	-1324	1329	185	32767	15665	-35	181	185	1208	94224	1208	57734109
-4325	-1093	1631	-1969	32767	16725	-35	217	187	1209	94278	1209	57734109
-5749	-830	253	-3473	32767	17723	-35	217	187	1210	94380	1210	57734113
-7119	-924	-607	-5311	32767	19180	-35	269	185	1211	94434	1211	57734113
-8281	-997	-1038	-6796	32767	20464	-35	269	185	1212	94536	1212	57734115
-9402	-654	-1401	-7840	32767	21287	-37	317	153	1213	94590	1213	57734116
-9696	-733	-2526	-9467	32767	21762	-37	317	153	1214	94692	1214	57734117
-9688	-795	-3484	-11406	32767	21699	-43	353	121	1215	94746	1215	57734124
-9364	-998	-3983	-12689	32767	20996	-43	353	121	1216	94848	1216	57734124
-8891	-847	-4165	-13005	32767	19327	-47	369	89	1217	94902	1217	57734136
-8337	-1053	-3068	-13125	32767	17398	-47	369	89	1218	95004	1218	57734137
-7421	-928	-2339	-12510	32767	15264	-59	373	51	1219	95058	1219	57734138
-5245	-843	-1688	-10953	32767	13107	-59	373	51	1220	95160	1220	57734170
-4797	-1942	-70	-8087	32767	10702	-71	365	15	1221	95214	1221	57734171
-3190	38	-654	-5033	32767	7706	-71	365	15	1222	95316	1222	57734174
-2089	1552	-870	-4414	32767	4479	-77	349	-7	1223	95370	1223	57734175
-1982	2395	980	-6422	32760	896	-77	349	-7	1224	95472	1224	57734176
-1846	3052	2618	-8421	25667	-1873	-82	336	-30	1225	95526	1225	57734178
-489	3189	3285	-7984	18441	-3631	-82	336	-30	1226	95628	1226	57734179
1134	2127	3643	-4688	11745	-5302	-83	327	-33	1227	95682	1227	57734181
884	2180	3916	326	5356	-7377	-83	327	-33	1228	95784	1228	57734182
-556	2918	4096	4532	-1683	-8805	-76	326	-34	1229	95838	1229	57734187
-2402	3221	3204	7630	-8969	-8906	-76	326	-34	1230	95940	1230	57734218
-3593	1515	352	10704	-14951	-7695	-71	327	-35	1231	95994	1231	57734218
-4854	-80	-3334	13497	-18265	-7094	-71	327	-35	1232	96096	1232	57734221
-4850	-1751	-4485	14536	-19289	-6699	-58	342	-34	1233	96150	1233	57734221
-2859	-3650	-5293	14098	-19218	-7101	-58	342	-34	1234	96252	1234	57734224
-4812	-2673	-5996	12851	-17729	-7732	-52	346	-22	1235	96306	1235	57734225
-6877	-1982	-5350	9479	-15608	-7164	-52	346	-22	1236	96408	1236	57734225
-7378	-1524	-4022	5583	-13274	-6091	-43	353	-11	1237	96462	1237	57734233
-6839	-1247	-2637	3388	-11381	-4410	-43	353	-11	1238	96564	1238	57734233
-6367	-570	-1675	3292	-10660	-2746	-36	356	-4	1239	96618	1239	57734235
-6661	387	-1312	4423	-11188	-973	-36	356	-4	1240	96720	1240	57734268
-6915	1195	-1612	5669	-12471	890	-38	366	6	1241	96774	1241	57734269
-7485	1593	-1233	6564	-13990	2943	-38	366	6	1242	96876	1242	57734271
-7689	1056	-1221	6935	-15864	5182	-37	367	15	1243	96930	1243	57734272
-7021	214	-901	7667	-17195	7276	-37	367	15	1244	97032	1244	57734274
-6149	-615	-788	8845	-18187	9134	-44	364	26	1245	97086	1245	57734277
-5498	-1639	-1382	9794	-18789	10179	-44	364	26	1246	97188	1246	57734280
-4640	-1891	-1539	9783	-18495	10201	-47	365	39	1247	97242	1247	57734280
-3885	-1446	-947	8734	-17671	10045	-47	365	39	1248	97344	1248	57734281
-3739	-1057	-306	7986	-17039	9666	-53	369	55	1249	97398	1249	57734309
-3628	-1114	-634	8172	-16694	8917	-53	369	55	1250	97500	1250	57734309
-3910	-758	-1022	8459	-16593	8110	-65	363	63	1251	97554	1251	57734311
-4487	28	-1336	8482	-16762	7229	-65	363	63	1252	97656	1252	57734312
-4949	332	-1609	7681	-17428	6557	-65	357	71	1253	97710	1253	57734312
-5040	-224	-1451	6279	-18396	6143	-65	357	71	1254	97812	1254	57734316
-5120	-511	-1681	5232	-18800	5898	-76	350	84	1255	97866	1255	57734317
-4341	-1189	-7413	3543	-17788	5254	-76	350	84	1256	97968	1256	57734319
-4997	-1187	-4049	-263	-13904	3370	-76	344	100	1257	98022	1257	57734351
-5546	-636	348	-2121	-11674	1441	-76	344	100	1258	98124	1258	57734352
-4479	-1361	-1580	-828	-9435	739	-78	344	106	1259	98178	1259	57734356
-4204	-749	-1645	-477	-5776	-123	-78	344	106	1260	98280	1260	57734356
-4090	34	-1179	-561	-3404	-1276	-79	347	103	1261	98334	1261	57734357
-4084	-132	-939	-437	-2634	-2675	-79	347	103	1262	98436	1262	57734359
-4146	-245	-644	291	-3082	-3982	-77	345	105	1263	98490	1263	57734359
-4111	-189	-191	1619	-4557	-4881	-77	345	105	1264	98592	1264	57734362
-4027	-369	325	3162	-6893	-5461	-72	344	106	1265	98646	1265	57734363
-3611	-649	857	4765	-9413	-5465	-72	344	106	1266	98748	1266	57734368
-3146	-651	1355	6278	-11405	-5331	-73	341	119	1267	98802	1267	57734401
-2802	-1006	1911	7411	-12603	-4892	-73	341	119	1268	98904	1268	57734401
-2228	-1940	1917	8718	-12792	-4981	-68	338	126	1269	98958	1269	57734405
-2631	-1339	2583	10592	-12221	-5228	-68	338	126	1270	99060	1270	57734405
-2241	-1563	2784	12771	-11488	-4965	-73	341	125	1271	99114	1271	57734409
-2056	-1551	2597	15370	-10246	-4845	-73	341	125	1272	99216	1272	57734413
-2199	-1224	2663	17765	-8862	-4722	-76	332	122	1273	99270	1273	57734413
-2537	-777	2667	19880	-7909	-4341	-76	332	122	1274	99372	1274	57734414
-2885	-747	3118	21612	-7402	-3780	-83	329	127	1275	99426	1275	57734414
-3064	-352	2927	23529	-6862	-3019	-83	329	127	1276	99528	1276	57734423
-2540	-90	2259	26916	-4788	-1632	-93	325	121	1277	99582	1277	57734424
-3069	921	2152	32471	-308	952	-93	325	121	1278	99684	1278	57734427
-3344	2170	1309	32767	2351	3197	-101	335	109	1279	99738	1279	57734460
-3827	3144	699	32767	2279	4045	-101	335	109	1280	99840	1280	57734462
-4346	3490	326	28080	-391	3815	-111	335	95	1281	99894	1281	57734465
-4421	3241	291	21153	-4998	2982	-111	335	95	1282	99996	1282	57734466
-4224	2808	500	15609	-9667	2732	-117	329	85	1283	100050	1283	57734467
-3800	2178	981	12247	-13189	3179	-117	329	85	1284	100152	1284	57734468
-3509	1837	1372	11082	-15123	4108	-126	324	86	1285	100206	1285	57734468
-3790	1701	1769	11251	-15864	5453	-126	324	86	1286	100308	1286	57734471
-3913	1583	2444	12112	-16144	6819	-123	313	91	1287	100362	1287	57734472
-3787	1797	2771	13093	-16598	7740	-123	313	91	1288	100464	1288	57734476
-4032	2240	2843	13669	-17408	7875	-135	311	95	1289	100518	1289	57734507
-5655	1920	3034	13727	-18710	7442	-135	311	95	1290	100620	1290	57734508
-6410	3114	3628	13023	-20278	4629	-144	300	96	1291	100674	1291	57734511
-4504	3614	2548	11470	-21569	1572	-144	300	96	1292	100776	1292	57734512
-2199	3336	1193	10486	-21925	-403	-138	306	88	1293	100830	1293	57734514
-6887	2859	-7607	8636	-22127	705	-138	306	88	1294	100932	1294	57734515
-513	1028	-869	4567	-28365	8317	-145	287	93	1295	100986	1295	57734515
1998	1681	1490	7257	-27657	7684	-145	287	93	1296	101088	1296	57734522
339	2959	-1420	7251	-21860	5662	-149	275	101	1297	101142	1297	57734523
-527	3810	-1417	7012	-15854	4065	-149	275	101	1298	101244	1298	57734529
-650	3083	566	6010	-11051	3227	-151	271	101	1299	101298	1299	57734533
-800	2572	1786	5409	-7921	2219	-151	271	101	1300	101400	1300	57734533
-881	2564	1652	5222	-6049	1168	-153	269	103	1301	101454	1301	57734569
-1161	2831	2354	5177	-4717	479	-153	269	103	1302	101556	1302	57734569
-1323	2960	2366	5438	-4468	246	-157	265	99	1303	101610	1303	57734572
-1472	3154	2096	5593	-4412	111	-157	265	99	1304	101712	1304	57734572
-1594	3206	1990	5519	-4074	85	-159	263	91	1305	101766	1305	57734573
-1695	3105	1980	5239	-3514	-90	-159	263	91	1306	101868	1306	57734576
-1764	3142	2085	4834	-2900	-324	-162	264	90	1307	101922	1307	57734576
-1777	3179	2024	4356	-2329	-667	-162	264	90	1308	102024	1308	57734580
-1736	3053	2320	3713	-1942	-1130	-165	263	83	1309	102078	1309	57734581
-1669	2928	2588	3071	-1883	-1793	-165	263	83	1310	102180	1310	57734584
-1748	3104	2499	2504	-2010	-2560	-158	264	88	1311	102234	1311	57734618
-1937	3503	2258	1968	-1962	-3420	-158	264	88	1312	102336	1312	57734619
-2119	4083	1923	1273	-1668	-4002	-159	269	83	1313	102390	1313	57734620
-2404	4781	1201	105	-1262	-4405	-159	269	83	1314	102492	1314	57734620
-2766	6089	-17	-1862	-604	-4510	-159	275	79	1315	102546	1315	57734622
-3052	6878	-887	-5129	611	-4497	-159	275	79	1316	102648	1316	57734624
-2378	5039	-413	-8927	2381	-4969	-158	272	82	1317	102702	1317	57734625
-3171	5768	514	-13028	4124	-6259	-158	272	82	1318	102804	1318	57734629
-2628	3953	1243	-16642	4731	-6445	-153	281	93	1319	102858	1319	57734629
101	1061	35	-18539	6221	-7464	-153	281	93	1320	102960	1320	57734631
545	810	-256	-20225	10795	-10145	-142	284	98	1321	103014	1321	57734664
-895	1299	1092	-22432	14789	-13621	-142	284	98	1322	103116	1322	57734664
-2308	2218	682	-24921	16477	-16341	-130	300	110	1323	103170	1323	57734668
-3724	2881	531	-28199	17238	-17927	-130	300	110	1324	103272	1324	57734668
-3797	2333	1493	-31459	17341	-17010	-112	314	116	1325	103326	1325	57734671
-3020	1398	2085	-32768	17221	-14860	-112	314	116	1326	103428	1326	57734672
-2391	694	2317	-32768	17314	-12967	-97	333	117	1327	103482	1327	57734672
-1392	18	1708	-32768	17781	-11162	-97	333	117	1328	103584	1328	57734680
-1420	40	1484	-32768	18844	-10040	-72	336	126	1329	103638	1329	57734680
-1363	-1032	1146	-32768	19610	-8941	-72	336	126	1330	103740	1330	57734714
-1323	-2082	769	-32768	19709	-8019	-47	345	127	1331	103794	1331	57734715
-1473	-2515	-291	-32768	19330	-7184	-47	345	127	1332	103896	1332	57734716
-1872	-3042	-1527	-32768	19373	-6217	-39	359	111	1333	103950	1333	57734718
-2145	-3804	-3171	-32768	20363	-5168	-39	359	111	1334	104052	1334	57734718
-2833	-4443	-4247	-32768	22560	-4065	-19	367	95	1335	104106	1335	57734721
-3658	-4803	-5424	-32768	24895	-2406	-19	367	95	1336	104208	1336	57734722
-5261	-7629	-6698	-32768	27051	-254	-11	369	73	1337	104262	1337	57734724
-2903	-10693	-2346	-32768	28119	1467	-11	369	73	1338	104364	1338	57734726
-5744	49	-3059	-18029	30472	-1754	-3	369	59	1339	104418	1339	57734739
-6223	86	3683	-15915	27024	99	-3	369	59	1340	104520	1340	57734761
-5546	201	3154	-14028	19565	496	1	363	41	1341	104574	1341	57734761
-3892	-824	1128	-11800	13143	1349	1	363	41	1342	104676	1342	57734763
-3328	-1319	-317	-9801	9378	2557	-6	376	20	1343	104730	1343	57734765
-3206	-1280	-1556	-8250	5779	2700	-6	376	20	1344	104832	1344	57734765
-3145	-1050	-2879	-7086	2058	2345	-10	370	16	1345	104886	1345	57734768
-3599	-784	-5528	-5885	-289	2304	-10	370	16	1346	104988	1346	57734769
-4850	-390	-8337	-5549	147	2915	-11	375	13	1347	105042	1347	57734771
-4121	-1315	-4350	-5798	1951	4062	-11	375	13	1348	105144	1348	57734772
-4074	-1658	-3018	-5507	-2	3709	-19	367	15	1349	105198	1349	57734772
-4902	-1039	-2813	-5011	-3326	3343	-19	367	15	1350	105300	1350	57734808
-5652	-716	-2400	-4022	-6267	4007	-19	367	23	1351	105354	1351	57734809
-5952	-1147	-2505	-2896	-8906	5458	-19	367	23	1352	105456	1352	57734812
-6049	-1661	-3681	-2038	-10610	7084	-31	367	29	1353	105510	1353	57734812
-6829	-2304	-2266	-1764	-11090	8444	-31	367	29	1354	105612	1354	57734813
-7573	-2389	-2150	-1217	-11960	9196	-31	367	33	1355	105666	1355	57734816
-6021	-3166	-1339	-1080	-13169	9451	-31	367	33	1356	105768	1356	57734817
-4269	-2561	753	476	-13620	8198	-38	362	42	1357	105822	1357	57734824
-3541	-2298	2199	3719	-13515	6999	-38	362	42	1358	105924	1358	57734824
-2709	-2899	2073	8133	-14051	6249	-44	364	58	1359	105978	1359	57734826
-2117	-3087	1492	13934	-14965	4952	-44	364	58	1360	106080	1360	57734858
-2052	-3284	826	20459	-16024	3100	-52	366	70	1361	106134	1361	57734859
-2331	-3068	302	26289	-17169	1656	-52	366	70	1362	106236	1362	57734862
-2805	-2909	199	30195	-18562	1283	-51	361	71	1363	106290	1363	57734863
-3235	-2685	86	32267	-19835	1714	-51	361	71	1364	106392	1364	57734866
-3044	-3578	443	32767	-20755	2776	-55	359	75	1365	106446	1365	57734867
-2765	-2536	689	32767	-20939	3481	-55	359	75	1366	106548	1366	57734867
-2357	-1382	1020	32767	-20549	4573	-63	357	87	1367	106602	1367	57734871
-2362	-219	1465	32496	-19653	5981	-63	357	87	1368	106704	1368	57734871
-2710	701	1844	31727	-18650	7373	-73	349	97	1369	106758	1369	57734875
-3296	1680	1977	30264	-17782	8402	-73	349	97	1370	106860	1370	57734908
-4020	2498	1844	27948	-17315	8732	-93	347	101	1371	106914	1371	57734908
-4243	2632	1591	25038	-17187	8548	-93	347	101	1372	107016	1372	57734911
-4282	2135	1492	22406	-17071	8332	-101	341	95	1373	107070	1373	57734911
-4327	1403	1265	20698	-16878	8152	-101	341	95	1374	107172	1374	57734914
-4230	833	900	19627	-16627	8073	-113	331	91	1375	107226	1375	57734915
-4066	705	651	18784	-16328	7819	-113	331	91	1376	107328	1376	57734915
-3876	718	638	17947	-15851	7215	-119	327	91	1377	107382	1377	57734920
-3588	1387	352	17191	-15126	6395	-119	327	91	1378	107484	1378	57734921
-3240	1816	250	16024	-14249	5604	-126	312	96	1379	107538	1379	57734922
-2975	2283	220	14685	-13218	4857	-126	312	96	1380	107640	1380	57734950
-2825	2491	395	13270	-12088	4313	-134	308	94	1381	107694	1381	57734950
-2672	2338	897	11931	-11065	3790	-134	308	94	1382	107796	1382	57734954
-2490	2046	1404	10964	-10325	3113	-136	306	88	1383	107850	1383	57734954
-2454	2013	1715	10497	-9941	2427	-136	306	88	1384	107952	1384	57734957
-2645	2123	1848	10510	-9781	1977	-137	301	87	1385	108006	1385	57734958
-2787	2232	1908	10771	-9752	1993	-137	301	87	1386	108108	1386	57734960
-3008	2346	1902	10986	-9803	2090	-143	295	87	1387	108162	1387	57734993
-3207	2056	2072	11159	-9839	2338	-143	295	87	1388	108264	1388	57734993
-3109	2225	1856	11590	-9803	2476	-145	299	85	1389	108318	1389	57734996
-3296	2854	1718	11418	-9683	2341	-145	299	85	1390	108420	1390	57734996
-3107	3029	1296	10432	-9695	1901	-148	296	72	1391	108474	1391	57734999
-2575	2889	701	9143	-9657	1655	-148	296	72	1392	108576	1392	57735000
-2034	2809	201	7776	-9148	1247	-151	293	73	1393	108630	1393	57735000
-1759	2714	153	6395	-7951	561	-151	293	73	1394	108732	1394	57735004
-1860	2868	273	5031	-6303	-428	-152	290	66	1395	108786	1395	57735004
-2151	3219	189	3508	-4723	-1384	-152	290	66	1396	108888	1396	57735007
-2595	3526	25	1652	-3478	-2247	-150	292	76	1397	108942	1397	57735040
-2959	3670	-57	-539	-2498	-2770	-150	292	76	1398	109044	1398	57735040
-3153	3574	463	-3083	-1949	-3045	-152	296	74	1399	109098	1399	57735043
-3178	3747	742	-5688	-2307	-3436	-152	296	74	1400	109200	1400	57735046
-3132	4289	334	-8357	-3355	-3688	-149	301	75	1401	109254	1401	57735047
-3233	4929	-178	-11093	-4184	-3886	-149	301	75	1402	109356	1402	57735048
-2968	4860	-296	-13940	-4473	-3747	-144	298	86	1403	109410	1403	57735048
-2571	4374	327	-16562	-4126	-3507	-144	298	86	1404	109512	1404	57735052
-1906	3420	1408	-19009	-3609	-3710	-141	289	99	1405	109566	1405	57735053
-870	2464	2388	-21052	-2959	-4429	-141	289	99	1406	109668	1406	57735088
626	810	2896	-22478	-1862	-6550	-130	294	114	1407	109722	1407	57735088
-297	2343	2010	-22171	-401	-9484	-130	294	114	1408	109824	1408	57735088
-1270	2963	1763	-22506	1885	-10337	-117	295	123	1409	109878	1409	57735091
-1374	3130	1302	-23975	3940	-10466	-117	295	123	1410	109980	1410	57735091
-779	2942	370	-26682	5475	-10456	-104	308	122	1411	110034	1411	57735095
93	1478	-392	-30162	7081	-10873	-104	308	122	1412	110136	1412	57735095
248	-416	-340	-32768	9156	-11595	-94	314	138	1413	110190	1413	57735097
-176	-2556	-70	-32768	11556	-12010	-94	314	138	1414	110292	1414	57735102
-1583	-3836	1146	-32768	13840	-12369	-62	322	146	1415	110346	1415	57735103
-3190	-4406	2181	-32768	14521	-12658	-62	322	146	1416	110448	1416	57735137
-3092	-3915	1190	-32768	12836	-13217	-33	325	145	1417	110502	1417	57735138
-2658	-3581	-225	-32768	10685	-13434	-33	325	145	1418	110604	1418	57735140
-3072	-4008	-948	-32768	9547	-13129	-9	333	137	1419	110658	1419	57735141
-2931	-4594	-1944	-32768	9348	-12180	-9	333	137	1420	110760	1420	57735142
-3070	-5665	-2645	-32768	11122	-10520	12	342	120	1421	110814	1421	57735146
-3312	-6779	-2855	-32768	14381	-8179	12	342	120	1422	110916	1422	57735146
-3483	-7956	-3391	-32768	18115	-5465	30	346	100	1423	110970	1423	57735147
-3420	-8734	-4032	-32768	21572	-3233	30	346	100	1424	111072	1424	57735150
-3462	-9020	-4565	-32768	24034	-1418	48	352	72	1425	111126	1425	57735150
-2888	-9472	-5167	-32768	25097	43	48	352	72	1426	111228	1426	57735185
-4190	-13768	-2829	-32768	23803	1048	54	354	44	1427	111282	1427	57735185
-3617	-7363	-2163	-32768	17967	129	54	354	44	1428	111384	1428	57735187
-6330	-4210	3227	-32768	16539	-4193	44	348	8	1429	111438	1429	57735189
-8335	-3915	5724	-25636	12584	-2762	44	348	8	1430	111540	1430	57735189
-6609	-630	2534	-22194	5775	-2	39	349	-13	1431	111594	1431	57735192
-3666	533	-554	-17894	1941	3113	39	349	-13	1432	111696	1432	57735194
-1623	589	-1644	-13586	1415	4747	30	344	-20	1433	111750	1433	57735197
-595	-112	-2234	-10288	420	4556	30	344	-20	1434	111852	1434	57735198
-1149	1	-2065	-7833	-1058	3242	28	340	-14	1435	111906	1435	57735198
-2244	-213	-1821	-5488	-2260	2395	28	340	-14	1436	112008	1436	57735233
-2744	-867	-1635	-3117	-3040	2429	14	344	-16	1437	112062	1437	57735233
-2527	-1603	-1773	-1003	-3782	2808	14	344	-16	1438	112164	1438	57735236
-2308	-2065	-2100	649	-4467	2829	24	346	-18	1439	112218	1439	57735236
-2411	-2187	-2315	1740	-4994	2557	24	346	-18	1440	112320	1440	57735238
-2515	-2196	-2579	2311	-5404	2348	21	349	-13	1441	112374	1441	57735240
-2418	-2095	-2770	2547	-5544	2176	21	349	-13	1442	112476	1442	57735240
-2244	-2028	-2978	2506	-5475	2033	11	347	-11	1443	112530	1443	57735247
-2300	-1814	-2900	2235	-5280	1689	11	347	-11	1444	112632	1444	57735248
-2544	-1709	-2806	2019	-5116	1425	20	356	-4	1445	112686	1445	57735250
-2983	-1625	-2677	2023	-5154	1233	20	356	-4	1446	112788	1446	57735283
-3568	-1515	-2463	2266	-5514	1123	14	354	4	1447	112842	1447	57735283
-4142	-1455	-1834	2915	-6324	1363	14	354	4	1448	112944	1448	57735286
-4912	-1476	-1121	4258	-8046	1667	25	351	7	1449	112998	1449	57735287
-5433	-1698	-577	6337	-10316	2266	25	351	7	1450	113100	1450	57735289
-5429	-2079	-169	8927	-12752	3246	15	357	13	1451	113154	1451	57735290
-4676	-2390	-544	11541	-15601	3852	15	357	13	1452	113256	1452	57735291
-5252	-855	-2210	13261	-18165	4511	11	361	29	1453	113310	1453	57735294
-4185	-2511	-1490	14284	-20116	5615	11	361	29	1454	113412	1454	57735294
-7897	-2533	-858	16476	-20920	4964	18	364	44	1455	113466	1455	57735296
-4661	-4546	-525	19431	-20660	5716	18	364	44	1456	113568	1456	57735329
-3435	-5566	278	24689	-20626	4898	12	364	64	1457	113622	1457	57735329
-3207	-5044	402	31975	-21154	3302	12	364	64	1458	113724	1458	57735335
-3460	-4743	110	32767	-20862	3071	0	362	80	1459	113778	1459	57735337
-3582	-5474	-73	32767	-21061	4418	0	362	80	1460	113880	1460	57735338
-3789	-6272	49	32767	-22363	6697	-15	359	103	1461	113934	1461	57735339
-3166	-6394	284	32767	-23808	9600	-15	359	103	1462	114036	1462	57735341
-1110	-6252	451	32767	-24099	13294	-39	355	115	1463	114090	1463	57735342
19	-5473	538	32767	-22148	15892	-39	355	115	1464	114192	1464	57735343
-506	-3969	164	32767	-18331	15777	-73	343	123	1465	114246	1465	57735378
-1452	414	504	32767	-14110	14123	-73	343	123	1466	114348	1466	57735378
-1842	3355	-816	32767	-11221	13786	-94	336	106	1467	114402	1467	57735380
-2137	3835	-877	32767	-10941	13460	-94	336	106	1468	114504	1468	57735381
-2452	3924	-338	26471	-9715	11351	-116	328	100	1469	114558	1469	57735381
-2350	3117	-38	21771	-8886	10032	-116	328	100	1470	114660	1470	57735385
-2738	1949	889	18524	-7330	8723	-126	320	90	1471	114714	1471	57735385
-3132	744	1463	17525	-5421	7871	-126	320	90	1472	114816	1472	57735387
-3493	13	2017	17521	-3796	6941	-137	313	81	1473	114870	1473	57735394
-3285	115	2045	18306	-2417	5719	-137	313	81	1474	114972	1474	57735395
-3526	891	1786	18613	-1672	4755	-141	311	73	1475	115026	1475	57735403
-3671	1781	1514	17674	-1431	3027	-141	311	73	1476	115128	1476	57735406
-3737	2446	1237	16184	-1794	1899	-143	309	65	1477	115182	1477	57735408
-3543	2781	960	14375	-2233	757	-143	309	65	1478	115284	1478	57735440
-2998	2791	1154	12374	-1990	-419	-149	305	59	1479	115338	1479	57735441
-2199	3035	-97	10866	-1052	-1299	-149	305	59	1480	115440	1480	57735444
-2132	2110	18	10645	-333	-1433	-144	304	46	1481	115494	1481	57735445
-1971	1703	943	11281	-224	-1551	-144	304	46	1482	115596	1482	57735446
-2309	1452	1745	11934	-593	-2014	-140	304	48	1483	115650	1483	57735448
-2514	1134	1929	12585	-1326	-2838	-140	304	48	1484	115752	1484	57735448
-2753	1315	1120	13488	-1882	-4071	-140	312	36	1485	115806	1485	57735452
-2549	1526	273	14227	-1833	-5499	-140	312	36	1486	115908	1486	57735452
-2717	1914	-128	14574	-1430	-6853	-139	311	27	1487	115962	1487	57735486
-3332	2261	-73	14413	-807	-7691	-139	311	27	1488	116064	1488	57735487
-3727	2203	469	13916	-496	-8238	-130	316	18	1489	116118	1489	57735487
-4272	2118	633	13423	-1236	-8422	-130	316	18	1490	116220	1490	57735490
-4791	2156	68	12756	-2617	-8310	-123	319	11	1491	116274	1491	57735490
-5190	2254	-381	11691	-3924	-7866	-123	319	11	1492	116376	1492	57735494
-4774	1828	-264	10315	-5058	-7163	-121	327	9	1493	116430	1493	57735496
-4646	1964	-151	8949	-6152	-6735	-121	327	9	1494	116532	1494	57735497
-4196	1788	14	7746	-7162	-6368	-111	331	3	1495	116586	1495	57735502
-4098	1657	-157	6877	-8078	-6083	-111	331	3	1496	116688	1496	57735502
-4139	1464	-341	6081	-8583	-6378	-100	334	14	1497	116742	1497	57735537
-4235	2003	-403	5346	-8888	-7071	-100	334	14	1498	116844	1498	57735537
-4263	2237	-280	4639	-8994	-7229	-100	334	18	1499	116898	1499	57735539
-4184	1818	17	4266	-9108	-7379	-100	334	18	1500	117000	1500	57735540
-4259	1557	-165	4052	-9366	-7624	-97	345	11	1501	117054	1501	57735541
-4044	1502	232	3829	-9701	-7830	-97	345	11	1502	117156	1502	57735544
-4466	1693	337	3648	-10460	-7756	-91	351	17	1503	117210	1503	57735549
-4590	1816	282	3412	-11515	-7266	-91	351	17	1504	117312	1504	57735549
-5098	1716	449	2933	-12810	-6584	-88	358	24	1505	117366	1505	57735550
-5346	1301	1424	2479	-14256	-5513	-88	358	24	1506	117468	1506	57735550
-5048	1160	2187	3013	-15903	-4294	-76	352	38	1507	117522	1507	57735589
-4494	1405	2144	4121	-17357	-3291	-76	352	38	1508	117624	1508	57735589
-3944	1513	1419	5249	-18121	-2437	-80	352	50	1509	117678	1509	57735591
-3569	1623	625	6144	-17568	-1514	-80	352	50	1510	117780	1510	57735592
-3375	1753	1201	6550	-16412	-820	-76	364	56	1511	117834	1511	57735597
-3575	1812	1826	7246	-15582	-405	-76	364	56	1512	117936	1512	57735597
-3770	1704	1948	8139	-15648	-129	-78	356	62	1513	117990	1513	57735598
-4591	2110	1008	8750	-15739	899	-78	356	62	1514	118092	1514	57735600
-5202	2317	792	8915	-15498	3004	-78	358	70	1515	118146	1515	57735601
-4777	2265	497	9273	-14934	5786	-78	358	70	1516	118248	1516	57735601
-3600	2056	-150	9088	-13816	7949	-83	347	89	1517	118302	1517	57735610
-1819	1711	-197	8128	-12066	9342	-83	347	89	1518	118404	1518	57735611
-754	1300	-270	7054	-9795	9354	-94	354	94	1519	118458	1519	57735646
-502	1774	-600	6191	-6844	7977	-94	354	94	1520	118560	1520	57735646
-583	2119	-808	5081	-3539	5832	-96	342	88	1521	118614	1521	57735648
-1091	2348	19	2999	-662	3185	-96	342	88	1522	118716	1522	57735649
-1996	2590	1159	1900	1300	1436	-105	345	87	1523	118770	1523	57735649
-2387	2307	1285	2328	2171	1179	-105	345	87	1524	118872	1524	57735653
-2033	2253	1042	3291	2790	1516	-107	345	85	1525	118926	1525	57735653
-2012	2383	767	3978	3764	1745	-107	345	85	1526	119028	1526	57735655
-2108	2296	594	4605	4676	2062	-104	346	78	1527	119082	1527	57735658
-2152	1978	368	5395	5084	2790	-104	346	78	1528	119184	1528	57735658
-2238	1908	66	6345	5459	4000	-103	337	81	1529	119238	1529	57735693
-2441	1900	94	7152	6244	5749	-103	337	81	1530	119340	1530	57735693
-3109	2310	346	7698	7535	7947	-109	341	71	1531	119394	1531	57735695
-3399	2756	943	8100	8947	10527	-109	341	71	1532	119496	1532	57735696
-3395	3220	1232	8578	10003	13145	-119	339	57	1533	119550	1533	57735696
-3319	3544	1102	8887	10518	15436	-119	339	57	1534	119652	1534	57735700
-3273	3741	760	8815	10504	17292	-132	326	52	1535	119706	1535	57735700
-3523	4109	638	8076	10013	18686	-132	326	52	1536	119808	1536	57735702
-2830	4387	502	6758	9525	19138	-134	314	38	1537	119862	1537	57735704
-2296	4982	121	5241	9101	18770	-134	314	38	1538	119964	1538	57735704
-1406	4246	1191	3955	8418	17875	-142	300	42	1539	120018	1539	57735740
-947	4211	1288	3102	8070	16223	-142	300	42	1540	120120	1540	57735740
-1092	4126	946	2470	7975	14556	-148	292	30	1541	120174	1541	57735743
-1491	4241	328	1852	7814	13413	-148	292	30	1542	120276	1542	57735744
-1322	4480	474	1141	7857	12920	-158	282	26	1543	120330	1543	57735747
-1199	4817	-711	953	7999	12814	-158	282	26	1544	120432	1544	57735748
-910	4605	-1202	218	7901	13009	-153	269	17	1545	120486	1545	57735748
-678	4380	-1483	-949	7759	13087	-153	269	17	1546	120588	1546	57735752
-508	4109	-773	-2402	7731	12849	-155	261	21	1547	120642	1547	57735753
-88	4501	-10	-3973	7372	12147	-155	261	21	1548	120744	1548	57735756
-421	4087	773	-5319	6569	11244	-159	247	29	1549	120798	1549	57735789
120	4242	1214	-6699	5709	10352	-159	247	29	1550	120900	1550	57735789
874	4208	1310	-7816	4338	9443	-160	246	36	1551	120954	1551	57735792
496	4128	653	-8927	2904	8413	-160	246	36	1552	121056	1552	57735793
510	4459	35	-10221	2590	7600	-168	240	36	1553	121110	1553	57735796
1229	5317	-746	-11543	2417	6792	-168	240	36	1554	121212	1554	57735797
1304	4217	250	-13236	2200	6152	-175	235	45	1555	121266	1555	57735799
1991	3957	-185	-14485	2269	5145	-175	235	45	1556	121368	1556	57735800
1984	2742	1732	-15605	2483	3434	-164	222	54	1557	121422	1557	57735800
1512	3116	1435	-16219	2432	1850	-164	222	54	1558	121524	1558	57735835
385	3500	241	-17719	1638	1227	-164	224	72	1559	121578	1559	57735835
991	2531	2051	-20244	435	1620	-164	224	72	1560	121680	1560	57735837
1948	2116	2900	-20664	179	1615	-164	222	84	1561	121734	1561	57735838
2272	2277	3265	-19497	681	718	-164	222	84	1562	121836	1562	57735839
1922	3511	3168	-17792	1611	-341	-158	224	98	1563	121890	1563	57735842
1661	3862	2521	-16217	2811	-732	-158	224	98	1564	121992	1564	57735843
1929	3233	1900	-15918	3971	-1592	-156	220	108	1565	122046	1565	57735845
1290	2877	1571	-16773	5495	-2607	-156	220	108	1566	122148	1566	57735850
1369	2842	1550	-18489	7362	-3389	-151	217	121	1567	122202	1567	57735851
1644	2457	1611	-20493	9200	-4165	-151	217	121	1568	122304	1568	57735887
2486	1630	1050	-22564	10943	-5183	-143	231	131	1569	122358	1569	57735888
771	1424	1891	-24811	12633	-6365	-143	231	131	1570	122460	1570	57735888
1877	665	1510	-26874	14342	-7195	-134	240	146	1571	122514	1571	57735889
-681	-809	3155	-28569	15382	-8419	-134	240	146	1572	122616	1572	57735889
-3029	-1176	4600	-28311	15365	-8657	-112	254	156	1573	122670	1573	57735892
-1880	-680	4233	-25860	14750	-7638	-112	254	156	1574	122772	1574	57735893
-1031	-481	3463	-22660	14574	-6996	-104	264	168	1575	122826	1575	57735897
-1104	-246	3541	-20209	14828	-6761	-104	264	168	1576	122928	1576	57735897
-1284	-177	3682	-18621	14964	-6565	-80	276	170	1577	122982	1577	57735898
-1379	-583	3828	-17846	14705	-6481	-80	276	170	1578	123084	1578	57735933
-1422	-1086	3773	-17684	14259	-6531	-69	289	171	1579	123138	1579	57735937
-1447	-1434	3762	-18003	13838	-6865	-69	289	171	1580	123240	1580	57735938
-1432	-1538	3661	-18599	13559	-7240	-53	297	165	1581	123294	1581	57735939
-1225	-1261	3640	-19840	13608	-7785	-53	297	165	1582	123396	1582	57735941
-1388	-1184	3766	-21972	13854	-8494	-38	310	160	1583	123450	1583	57735948
-1602	-1657	3218	-24071	14111	-9012	-38	310	160	1584	123552	1584	57735951
-1966	-2064	2624	-25886	14400	-9062	-23	321	153	1585	123606	1585	57735952
-2119	-2427	2406	-27430	14234	-8944	-23	321	153	1586	123708	1586	57735952
-2241	-2394	2389	-28051	13763	-8920	-4	328	150	1587	123762	1587	57735953
-2163	-2515	2308	-27461	13215	-8697	-4	328	150	1588	123864	1588	57735981
-2329	-2640	1980	-26058	12424	-8466	18	328	140	1589	123918	1589	57735981
-2867	-2627	1697	-24631	10898	-8188	18	328	140	1590	124020	1590	57735985
-3265	-2493	1550	-23120	8810	-7669	35	339	127	1591	124074	1591	57735985
-3529	-2544	1537	-21215	6913	-6870	35	339	127	1592	124176	1592	57735987
-3339	-2760	1338	-18938	5428	-5721	46	336	114	1593	124230	1593	57735989
-2917	-3165	998	-16679	4251	-4746	46	336	114	1594	124332	1594	57735989
-2613	-3425	488	-14620	3258	-4124	51	337	105	1595	124386	1595	57735994
-2576	-3545	68	-12907	2345	-3816	51	337	105	1596	124488	1596	57735994
-2749	-3492	-100	-11555	1461	-3765	54	336	104	1597	124542	1597	57736029
-2923	-3359	-104	-10473	658	-3522	54	336	104	1598	124644	1598	57736030
-3017	-3157	119	-9220	-41	-3145	67	337	99	1599	124698	1599	57736030
-3303	-2900	404	-7218	-905	-2792	67	337	99	1600	124800	1600	57736033
-3456	-2859	644	-4389	-2148	-2418	66	330	90	1601	124854	1601	57736033
-3233	-2912	876	-951	-3492	-1916	66	330	90	1602	124956	1602	57736036
-2982	-3037	813	2831	-4644	-1490	70	326	94	1603	125010	1603	57736037
-2905	-3008	580	6420	-5469	-1304	70	326	94	1604	125112	1604	57736039
-3320	-3464	594	9751	-5972	-1029	66	328	96	1605	125166	1605	57736044
-4070	-3811	809	13066	-6405	-459	66	328	96	1606	125268	1606	57736044
-4740	-4166	1533	16189	-6983	550	64	320	112	1607	125322	1607	57736079
-4503	-4646	2318	19035	-8039	2235	64	320	112	1608	125424	1608	57736082
-4274	-5198	2513	21712	-9597	3989	56	328	126	1609	125478	1609	57736083
-4055	-6032	2380	25278	-10601	5793	56	328	126	1610	125580	1610	57736084
-3778	-7079	1998	30826	-10482	7072	39	319	137	1611	125634	1611	57736092
-5482	-7209	3056	32767	-10291	8022	39	319	137	1612	125736	1612	57736096
-3248	-7670	2080	32767	-11891	9593	14	314	152	1613	125790	1613	57736096
-2035	-7629	572	32767	-13498	10325	14	314	152	1614	125892	1614	57736097
-678	-7656	-2014	32767	-13486	10442	-22	312	168	1615	125946	1615	57736097
1750	-8022	-5256	32767	-11644	10919	-22	312	168	1616	126048	1616	57736097
3451	-6688	-4644	32767	-8700	13399	-76	310	164	1617	126102	1617	57736126
4709	-1419	-3416	32767	-5927	17405	-76	310	164	1618	126204	1618	57736126
4153	3312	-1923	32767	-2524	21782	-122	306	132	1619	126258	1619	57736129
3202	5111	-1194	32767	1026	23791	-122	306	132	1620	126360	1620	57736130
2384	5702	-1137	32767	3825	23086	-156	290	92	1621	126414	1621	57736130
1965	5395	-1206	32767	5983	21485	-156	290	92	1622	126516	1622	57736134
1432	5233	-1141	32767	6783	19181	-161	267	57	1623	126570	1623	57736134
337	5730	-747	32767	6826	16601	-161	267	57	1624	126672	1624	57736136
-1748	7338	515	32767	5804	13249	-158	258	24	1625	126726	1625	57736139
-2132	8161	514	27418	3221	9098	-158	258	24	1626	126828	1626	57736139
-1360	7867	-1371	21423	609	5870	-152	246	8	1627	126882	1627	57736174
-1932	7451	-1683	17466	-660	4744	-152	246	8	1628	126984	1628	57736174
-1289	6280	-1771	13861	-1909	5304	-152	240	-2	1629	127038	1629	57736177
-1101	4857	-1034	10696	-2610	5927	-152	240	-2	1630	127140	1630	57736178
-1262	4526	-285	8637	-3260	5864	-154	246	-14	1631	127194	1631	57736178
-680	4454	-189	7490	-3987	5538	-154	246	-14	1632	127296	1632	57736181
-448	4422	-244	6828	-4642	5691	-149	239	-21	1633	127350	1633	57736181
-358	4201	-519	6491	-5509	6794	-149	239	-21	1634	127452	1634	57736186
87	3753	-820	6555	-6468	8382	-146	236	-22	1635	127506	1635	57736186
273	3220	-1133	7123	-7246	10106	-146	236	-22	1636	127608	1636	57736190
245	3079	-998	7754	-7895	11300	-145	229	-21	1637	127662	1637	57736229
291	3229	-844	8415	-8731	12019	-145	229	-21	1638	127764	1638	57736240
62	3250	-915	8993	-9794	12722	-142	228	-28	1639	127818	1639	57736248
-141	3220	-1297	9554	-10777	13333	-142	228	-28	1640	127920	1640	57736250
4	3187	-1726	9907	-11310	13841	-130	224	-36	1641	127974	1641	57736250
833	2598	-2148	10736	-11274	14001	-130	224	-36	1642	128076	1642	57736250
1146	2657	-2858	11794	-10554	13091	-129	225	-41	1643	128130	1643	57736250
901	3265	-3293	11528	-9570	11766	-129	225	-41	1644	128232	1644	57736251
935	3803	-3753	10171	-8743	10510	-128	224	-50	1645	128286	1645	57736251
746	4443	-4372	7906	-8203	9456	-128	224	-50	1646	128388	1646	57736251
432	4769	-5169	4732	-7808	8804	-116	218	-46	1647	128442	1647	57736251
424	4559	-5910	689	-6908	8387	-116	218	-46	1648	128544	1648	57736251
420	4018	-6158	-3700	-4819	7310	-117	223	-49	1649	128598	1649	57736285
688	3893	-5871	-7791	-1556	4906	-117	223	-49	1650	128700	1650	57736285
173	3854	-4967	-11640	2085	2528	-116	224	-48	1651	128754	1651	57736287
-227	3921	-3820	-14831	4891	1521	-116	224	-48	1652	128856	1652	57736289
-322	3624	-2520	-17307	6272	2343	-133	215	-43	1653	128910	1653	57736289
588	2402	-1154	-18716	6502	3888	-133	215	-43	1654	129012	1654	57736293
1570	1481	156	-18665	5530	4790	-140	202	-28	1655	129066	1655	57736293
2500	920	764	-16957	3763	4720	-140	202	-28	1656	129168	1656	57736296
2998	857	739	-14046	2660	3312	-146	204	-14	1657	129222	1657	57736297
2535	1774	517	-11333	2065	1401	-146	204	-14	1658	129324	1658	57736297
1477	3385	19	-9809	1320	92	-146	198	-8	1659	129378	1659	57736332
910	4354	-696	-9533	612	-94	-146	198	-8	1660	129480	1660	57736337
765	4755	-1086	-10050	559	264	-150	204	-4	1661	129534	1661	57736337
880	5055	-1282	-11457	1022	553	-150	204	-4	1662	129636	1662	57736338
1072	4809	-1279	-13653	1475	997	-155	205	-1	1663	129690	1663	57736339
1439	4214	-1076	-15880	1789	1277	-155	205	-1	1664	129792	1664	57736340
1646	3762	-593	-17725	2065	1305	-162	196	20	1665	129846	1665	57736340
1511	3310	235	-18994	2368	1246	-162	196	20	1666	129948	1666	57736344
1211	2935	994	-19296	2810	1264	-161	197	29	1667	130002	1667	57736346
997	2805	1461	-18957	3491	1116	-161	197	29	1668	130104	1668	57736348
1365	2716	1182	-18318	4089	898	-163	193	47	1669	130158	1669	57736380
1620	2985	719	-17833	4641	390	-163	193	47	1670	130260	1670	57736380
1909	3811	722	-17082	5601	-339	-165	193	61	1671	130314	1671	57736384
1645	3513	-30	-16654	6863	-1161	-165	193	61	1672	130416	1672	57736384
1246	3158	-268	-17570	8532	-1395	-170	202	68	1673	130470	1673	57736386
1133	2996	-843	-18814	9912	-1571	-170	202	68	1674	130572	1674	57736388
741	2655	-947	-20773	10626	-1253	-164	200	86	1675	130626	1675	57736389
672	2303	-769	-22872	10941	-376	-164	200	86	1676	130728	1676	57736393
594	2006	388	-24854	11248	527	-159	199	103	1677	130782	1677	57736394
336	1559	6692	-25005	11329	1350	-159	199	103	1678	130884	1678	57736396
162	1722	7136	-21368	8024	1249	-145	203	123	1679	130938	1679	57736429
909	2333	6134	-17664	4014	1234	-145	203	123	1680	131040	1680	57736437
2358	1680	4929	-12800	4026	914	-142	208	132	1681	131094	1681	57736438
2841	1010	3655	-9412	5510	-921	-142	208	132	1682	131196	1682	57736438
1312	1423	2396	-10705	5864	-2282	-136	206	136	1683	131250	1683	57736439
-745	2126	2477	-15865	5337	-1428	-136	206	136	1684	131352	1684	57736439
-964	2093	2959	-21697	4148	738	-127	213	145	1685	131406	1685	57736440
-322	1358	3137	-26793	3093	3377	-127	213	145	1686	131508	1686	57736442
390	346	3493	-31073	2540	6376	-108	210	168	1687	131562	1687	57736442
1032	-699	3969	-32768	2091	9115	-108	210	168	1688	131664	1688	57736479
1195	-2440	4598	-32768	1574	10687	-88	204	178	1689	131718	1689	57736480
713	-4042	4299	-30791	1346	10234	-88	204	178	1690	131820	1690	57736481
406	-946	4296	-26907	1165	7468	-72	202	192	1691	131874	1691	57736481
1194	-807	3386	-23496	243	6075	-72	202	192	1692	131976	1692	57736482
670	-627	3177	-21061	-691	5483	-55	207	195	1693	132030	1693	57736484
605	-649	3080	-19289	-1430	5192	-55	207	195	1694	132132	1694	57736486
765	-930	2904	-17962	-2218	5082	-42	204	190	1695	132186	1695	57736487
994	-1148	2726	-16963	-2766	5068	-42	204	190	1696	132288	1696	57736491
1354	-1553	2621	-16119	-3313	4463	-23	197	199	1697	132342	1697	57736492
1355	-1658	2489	-15412	-3627	3360	-23	197	199	1698	132444	1698	57736526
1387	-1775	2738	-14983	-4247	2872	-9	193	205	1699	132498	1699	57736527
1874	-1985	3907	-14416	-5192	2966	-9	193	205	1700	132600	1700	57736529
2030	-1738	2799	-12778	-4820	2699	1	189	197	1701	132654	1701	57736530
1642	-2166	3825	-12360	-3970	2341	1	189	197	1702	132756	1702	57736530
1385	-2520	2651	-11119	-3079	2481	3	187	193	1703	132810	1703	57736534
1573	-3421	2271	-11947	-2834	3678	3	187	193	1704	132912	1704	57736534
1245	-3877	2072	-13487	-3077	5272	17	191	185	1705	132966	1705	57736536
979	-4303	2117	-15326	-3794	6717	17	191	185	1706	133068	1706	57736538
1174	-4516	1940	-16523	-4997	8346	31	191	183	1707	133122	1707	57736539
1529	-4587	1692	-17189	-6492	10087	31	191	183	1708	133224	1708	57736572
1765	-4473	1671	-17260	-7882	11626	43	189	185	1709	133278	1709	57736573
2151	-4089	1759	-16685	-9009	12702	43	189	185	1710	133380	1710	57736576
2511	-3644	2300	-15564	-9626	13278	59	189	173	1711	133434	1711	57736576
2727	-3165	3088	-13845	-9640	13109	59	189	173	1712	133536	1712	57736576
2800	-2620	3697	-11774	-9144	12457	71	189	159	1713	133590	1713	57736580
2552	-2029	4129	-9784	-7971	11337	71	189	159	1714	133692	1714	57736580
1770	-1884	4419	-7987	-5969	9738	81	191	159	1715	133746	1715	57736585
1087	-1946	4219	-6073	-3538	7828	81	191	159	1716	133848	1716	57736585
753	-2018	3413	-4226	-1242	5982	80	186	156	1717	133902	1717	57736589
414	-2074	2444	-2962	637	4487	80	186	156	1718	134004	1718	57736621
-92	-2297	1937	-2397	1698	3388	82	186	158	1719	134058	1719	57736632
-403	-2546	1338	-2318	1636	2488	82	186	158	1720	134160	1720	57736633
-702	-2604	965	-2609	934	1832	84	194	146	1721	134214	1721	57736633
-581	-2549	892	-3190	72	1044	84	194	146	1722	134316	1722	57736633
-231	-2740	1418	-3712	-474	188	87	199	145	1723	134370	1723	57736634
10	-3077	2319	-3698	-576	-750	87	199	145	1724	134472	1724	57736634
110	-3481	2843	-2967	-534	-1867	85	195	151	1725	134526	1725	57736634
-31	-3733	2858	-1770	-360	-2885	85	195	151	1726	134628	1726	57736634
-260	-3814	2746	-474	15	-3851	88	188	148	1727	134682	1727	57736637
-608	-3880	2616	751	430	-4654	88	188	148	1728	134784	1728	57736670
-984	-4069	2294	1876	690	-5377	84	186	146	1729	134838	1729	57736672
-1303	-4159	1850	2773	900	-5931	84	186	146	1730	134940	1730	57736674
-1410	-4240	1723	3378	1106	-6373	80	184	154	1731	134994	1731	57736677
-1329	-4447	1915	3836	1099	-7001	80	184	154	1732	135096	1732	57736678
-1074	-4536	2072	4462	871	-7697	83	183	145	1733	135150	1733	57736678
-647	-4424	2563	5228	659	-8386	83	183	145	1734	135252	1734	57736679
-32	-3949	3415	6454	589	-9103	77	173	155	1735	135306	1735	57736683
810	-3692	4219	8494	1008	-10382	77	173	155	1736	135408	1736	57736683
1392	-3376	4952	11242	2161	-12653	67	171	167	1737	135462	1737	57736717
1394	-3299	5399	14783	4192	-15478	67	171	167	1738	135564	1738	57736718
602	-3607	4665	19042	8435	-18014	56	168	170	1739	135618	1739	57736720
700	-4417	3999	22260	12680	-20102	56	168	170	1740	135720	1740	57736721
717	-5262	2977	25733	14147	-23202	31	171	181	1741	135774	1741	57736722
1666	-5407	1333	29894	13088	-26410	31	171	181	1742	135876	1742	57736725
2622	-4866	481	32459	11162	-28821	8	182	184	1743	135930	1743	57736725
2735	-4152	226	32767	8714	-28856	8	182	184	1744	136032	1744	57736727
2464	-3249	257	32767	5635	-26227	-24	182	186	1745	136086	1745	57736732
2115	-2476	1003	32767	2555	-22291	-24	182	186	1746	136188	1746	57736733
1876	-1791	2024	32767	105	-18568	-60	186	190	1747	136242	1747	57736768
2292	-1424	2854	32767	-1733	-15566	-60	186	190	1748	136344	1748	57736768
2447	-876	2938	32767	-2952	-13760	-80	194	180	1749	136398	1749	57736770
2752	-19	2301	32767	-3677	-13008	-80	194	180	1750	136500	1750	57736771
3626	709	1525	32767	-3660	-12749	-106	196	166	1751	136554	1751	57736772
4693	1354	891	32767	-2736	-12617	-106	196	166	1752	136656	1752	57736775
4587	1883	343	32767	-940	-11781	-133	205	141	1753	136710	1753	57736776
4514	3741	347	32767	1171	-10375	-133	205	141	1754	136812	1754	57736778
4539	3847	368	30217	3920	-8695	-150	204	120	1755	136866	1755	57736781
2785	3507	1517	27408	6373	-7077	-150	204	120	1756	136968	1756	57736781
2427	2727	1867	27310	6842	-4881	-156	214	112	1757	137022	1757	57736817
1316	3656	1989	27741	6524	-3674	-156	214	112	1758	137124	1758	57736818
289	3189	1687	26524	5740	-3967	-160	216	94	1759	137178	1759	57736820
474	2306	1030	25861	4493	-4470	-160	216	94	1760	137280	1760	57736820
1289	2027	594	25883	3000	-4086	-166	228	66	1761	137334	1761	57736821
1728	1878	544	26017	2194	-3671	-166	228	66	1762	137436	1762	57736823
1312	2063	290	26213	1490	-3391	-168	224	48	1763	137490	1763	57736824
807	2635	-256	26125	597	-3071	-168	224	48	1764	137592	1764	57736828
532	3229	-486	25026	-325	-2834	-161	227	29	1765	137646	1765	57736828
-43	3927	-1423	23622	-1477	-2422	-161	227	29	1766	137748	1766	57736830
-240	4386	-1891	21434	-2331	-1685	-164	230	16	1767	137802	1767	57736869
-15	4893	-2396	19217	-3143	-987	-164	230	16	1768	137904	1768	57736869
261	5085	-3182	16392	-3363	-723	-154	224	8	1769	137958	1769	57736872
546	4942	-2987	13323	-2766	-834	-154	224	8	1770	138060	1770	57736873
641	4841	-2709	10666	-2185	-926	-158	236	-14	1771	138114	1771	57736878
838	4470	-2311	8512	-1640	-862	-158	236	-14	1772	138216	1772	57736880
901	4199	-1821	7147	-1081	-958	-148	232	-20	1773	138270	1773	57736884
775	3982	-1212	6424	-547	-1150	-148	232	-20	1774	138372	1774	57736887
691	3807	-797	6264	-230	-1229	-147	233	-19	1775	138426	1775	57736888
871	3374	-241	6556	-55	-1178	-147	233	-19	1776	138528	1776	57736888
1128	2579	433	7639	102	-1160	-141	233	-19	1777	138582	1777	57736889
