Accl X	Accl Y	Accl Z	Gyro X	Gyro Y	Gyro Z	Mag X	Mag Y	Mag Z	RPkt#	Rtime	LPkt#	Ltime
454	292	3819	-18	-32	34	-20	156	176	0	0	0	57831915
416	303	3767	-18	-31	64	-20	156	176	1	102	1	57831918
428	320	3789	-21	-35	3	-30	154	182	2	156	2	57831920
439	305	3812	-21	-34	-5	-30	154	182	3	258	3	57831921
433	324	3813	-18	-32	48	-29	155	179	4	312	4	57831922
418	315	3760	-17	-34	-11	-29	155	179	5	414	5	57831927
430	287	3807	-21	-36	75	-29	157	177	6	468	6	57831928
444	304	3834	-21	-34	15	-29	157	177	7	570	7	57831928
413	315	3804	-22	-35	23	-29	159	181	8	624	8	57831929
427	306	3781	-19	-34	-1	-29	159	181	9	726	9	57831961
435	305	3792	-20	-35	59	-24	158	178	10	780	10	57831962
441	307	3808	-17	-34	23	-24	158	178	11	882	11	57831965
446	297	3800	-18	-36	20	-20	158	178	12	936	12	57831965
433	294	3781	-17	-35	-46	-20	158	178	13	1038	13	57831968
419	307	3804	-16	-35	-4	-20	160	174	14	1092	14	57831969
432	315	3784	-18	-36	0	-20	160	174	15	1194	15	57831969
453	300	3815	-16	-35	21	-27	161	179	16	1248	16	57831976
426	304	3797	-18	-36	6	-27	161	179	17	1350	17	57831977
429	297	3812	-18	-36	22	-27	153	181	18	1404	18	57831979
412	309	3782	-22	-34	59	-27	153	181	19	1506	19	57832011
414	293	3815	-20	-33	-1	-26	154	180	20	1560	20	57832012
425	304	3790	-17	-35	26	-26	154	180	21	1662	21	57832015
432	300	3784	-17	-31	55	-27	163	175	22	1716	22	57832015
431	319	3788	-17	-32	37	-27	163	175	23	1818	23	57832018
416	300	3794	-19	-32	-74	-30	162	180	24	1872	24	57832019
431	292	3781	-22	-31	-9	-30	162	180	25	1974	25	57832019
414	304	3807	-16	-34	56	-23	165	175	26	2028	26	57832025
435	315	3811	-19	-34	-1	-23	165	175	27	2130	27	57832025
436	315	3797	-14	-34	33	-25	157	181	28	2184	28	57832077
417	313	3795	-18	-36	-13	-25	157	181	29	2286	29	57832077
427	316	3783	-17	-33	-18	-27	153	185	30	2340	30	57832077
448	314	3817	-20	-33	25	-27	153	185	31	2442	31	57832080
456	301	3793	-22	-35	-5	-28	162	176	32	2496	32	57832080
434	309	3780	-21	-34	-17	-28	162	176	33	2598	33	57832084
425	307	3787	-20	-34	0	-30	160	176	34	2652	34	57832085
445	301	3781	-18	-34	13	-30	160	176	35	2754	35	57832087
421	286	3754	-20	-35	18	-29	161	177	36	2808	36	57832088
452	318	3785	-20	-37	2	-29	161	177	37	2910	37	57832089
437	310	3806	-21	-33	-22	-32	164	174	38	2964	38	57832092
438	309	3781	-19	-34	45	-32	164	174	39	3066	39	57832093
439	309	3798	-20	-33	-18	-29	155	177	40	3120	40	57832094
455	306	3808	-17	-34	21	-29	155	177	41	3222	41	57832097
432	308	3781	-20	-34	31	-25	157	181	42	3276	42	57832099
428	307	3798	-13	-35	-3	-25	157	181	43	3378	43	57832131
429	298	3798	-16	-33	64	-23	163	183	44	3432	44	57832131
432	303	3786	-18	-32	26	-23	163	183	45	3534	45	57832134
419	294	3814	-21	-34	28	-26	156	182	46	3588	46	57832135
433	297	3790	-18	-33	10	-26	156	182	47	3690	47	57832135
454	305	3811	-18	-36	-3	-25	163	177	48	3744	48	57832139
429	300	3810	-16	-32	32	-25	163	177	49	3846	49	57832139
424	315	3780	-21	-32	-8	-27	163	177	50	3900	50	57832141
418	293	3764	-21	-36	24	-27	163	177	51	4002	51	57832147
421	288	3794	-20	-35	-2	-23	153	183	52	4056	52	57832147
431	312	3792	-17	-34	21	-23	153	183	53	4158	53	57832182
449	311	3775	-22	-36	31	-25	159	185	54	4212	54	57832182
450	307	3787	-18	-33	-3	-25	159	185	55	4314	55	57832197
421	306	3792	-22	-36	1	-25	155	183	56	4368	56	57832199
445	320	3800	-23	-36	14	-25	155	183	57	4470	57	57832200
416	289	3792	-19	-34	31	-31	157	173	58	4524	58	57832200
431	304	3801	-20	-33	40	-31	157	173	59	4626	59	57832200
441	302	3796	-21	-34	-21	-27	159	171	60	4680	60	57832200
451	318	3805	-16	-34	10	-27	159	171	61	4782	61	57832201
422	320	3809	-16	-34	38	-27	155	183	62	4836	62	57832201
444	301	3801	-19	-33	42	-27	155	183	63	4938	63	57832229
422	303	3792	-18	-33	23	-21	159	183	64	4992	64	57832230
397	308	3801	-18	-35	-2	-21	159	183	65	5094	65	57832233
435	311	3792	-20	-35	29	-29	165	181	66	5148	66	57832233
426	298	3772	-17	-33	-33	-29	165	181	67	5250	67	57832235
431	302	3801	-16	-35	38	-30	162	176	68	5304	68	57832237
416	299	3789	-20	-35	55	-30	162	176	69	5406	69	57832237
437	307	3792	-22	-38	-3	-25	161	181	70	5460	70	57832240
139	350	3753	-12	-29	23	-25	161	181	71	5562	71	57832241
-1257	963	3712	108	68	64	-31	157	179	72	5616	72	57832244
-3903	2612	4434	367	230	52	-31	157	179	73	5718	73	57832277
-1466	1595	3985	213	78	882	-24	154	180	74	5772	74	57832277
834	-842	4016	3	-2	1379	-24	154	180	75	5874	75	57832280
886	-1052	3791	142	-166	-72	-22	160	180	76	5928	76	57832280
-64	-343	3986	-209	-258	-2204	-22	160	180	77	6030	77	57832282
-461	738	3988	0	-355	-3058	-27	153	177	78	6084	78	57832284
3302	539	3651	413	-68	95	-27	153	177	79	6186	79	57832284
5480	1070	1744	393	-140	816	-25	161	175	80	6240	80	57832291
2546	-1804	4832	-1025	-90	-286	-25	161	175	81	6342	81	57832292
1380	-172	3569	-84	-202	-824	-26	160	184	82	6396	82	57832294
396	-208	3868	220	-168	-1191	-26	160	184	83	6498	83	57832327
-133	-68	4132	166	-188	-1380	-28	158	184	84	6552	84	57832327
303	-45	3781	78	-252	-1499	-28	158	184	85	6654	85	57832330
491	-57	3787	-123	-294	-1806	-29	159	181	86	6708	86	57832331
413	54	3877	-169	-339	-2096	-29	159	181	87	6810	87	57832333
268	-20	4038	-37	-360	-2107	-33	161	173	88	6864	88	57832334
410	-119	4113	157	-380	-2024	-33	161	173	89	6966	89	57832334
387	-221	4237	605	-296	-2162	-29	157	171	90	7020	90	57832339
240	-198	4409	1038	-257	-2481	-29	157	171	91	7122	91	57832339
-259	-238	4514	1618	-151	-3048	-36	156	182	92	7176	92	57832374
-329	162	4441	2350	-91	-3504	-36	156	182	93	7278	93	57832376
283	1034	4733	2724	-30	-3869	-33	159	183	94	7332	94	57832378
1046	1391	5402	1998	271	-4252	-33	159	183	95	7434	95	57832378
1853	1162	5732	1590	563	-4612	-40	156	176	96	7488	96	57832379
2114	905	5729	1959	1077	-5132	-40	156	176	97	7590	97	57832381
2138	673	5654	2352	1617	-5463	-41	161	177	98	7644	98	57832382
2148	511	5552	2706	2157	-5730	-41	161	177	99	7746	99	57832387
1998	459	5567	3037	2805	-6333	-46	164	176	100	7800	100	57832389
1677	482	5630	3261	3548	-7106	-46	164	176	101	7902	101	57832390
1380	568	5571	3302	4259	-7881	-45	163	181	102	7956	102	57832399
1296	673	5447	3217	4852	-8436	-45	163	181	103	8058	103	57832400
1175	833	5343	3122	5423	-8647	-55	171	187	104	8112	104	57832403
885	823	5183	3065	6015	-8611	-55	171	187	105	8214	105	57832437
597	700	4986	3146	6593	-8484	-61	175	183	106	8268	106	57832437
320	546	4936	3386	7195	-8323	-61	175	183	107	8370	107	57832442
98	597	5022	3761	7832	-8262	-59	187	187	108	8424	108	57832444
33	734	5260	4068	8303	-8179	-59	187	187	109	8526	109	57832445
162	759	5401	4217	8556	-8004	-67	193	177	110	8580	110	57832448
410	596	5463	4347	8695	-7572	-67	193	177	111	8682	111	57832448
369	766	5355	4629	8774	-7289	-73	201	177	112	8736	112	57832449
260	748	5198	4855	8613	-6835	-73	201	177	113	8838	113	57832449
267	620	4913	5190	8336	-6442	-74	202	180	114	8892	114	57832459
412	510	4723	5735	8157	-6147	-74	202	180	115	8994	115	57832459
335	308	4566	6505	8052	-5875	-78	218	182	116	9048	116	57832462
123	31	4344	7421	7921	-5806	-78	218	182	117	9150	117	57832494
-179	-193	4081	8307	7766	-5896	-89	223	181	118	9204	118	57832495
-428	-137	3757	8989	7596	-6129	-89	223	181	119	9306	119	57832498
-407	85	3530	9340	7471	-6452	-87	229	177	120	9360	120	57832498
-527	486	3658	9426	7507	-6578	-87	229	177	121	9462	121	57832500
-765	776	3772	9782	7606	-6391	-94	240	170	122	9516	122	57832501
-966	750	3799	10547	7757	-6219	-94	240	170	123	9618	123	57832502
-1009	657	3696	11595	8022	-6122	-100	246	158	124	9672	124	57832506
-986	708	3324	12923	8642	-5998	-100	246	158	125	9774	125	57832507
-751	557	3094	14194	9800	-5818	-109	257	155	126	9828	126	57832510
-909	653	2945	15391	11326	-5811	-109	257	155	127	9930	127	57832543
-2071	588	2415	16267	12832	-5832	-112	262	146	128	9984	128	57832543
-3948	519	1742	15427	13902	-6209	-112	262	146	129	10086	129	57832546
-3508	1235	912	11868	14123	-6122	-121	273	137	130	10140	130	57832547
-2149	1780	566	8773	14236	-4958	-121	273	137	131	10242	131	57832549
-2352	1530	324	8154	14652	-3868	-119	283	125	132	10296	132	57832550
-2549	503	-373	7067	14594	-3050	-119	283	125	133	10398	133	57832551
-3112	-419	-526	4046	15035	-2871	-119	297	119	134	10452	134	57832555
-3380	611	-1382	783	15131	-3136	-119	297	119	135	10554	135	57832556
-2753	935	-1210	582	14199	-2772	-119	301	119	136	10608	136	57832590
-2662	1225	-556	469	12907	-1950	-119	301	119	137	10710	137	57832591
-2643	1541	-374	350	11263	-982	-119	297	111	138	10764	138	57832596
-2473	1488	-805	112	9248	-106	-119	297	111	139	10866	139	57832596
-2440	1258	-1548	-746	7792	558	-126	308	100	140	10920	140	57832597
-3008	1238	-2126	-2397	7270	957	-126	308	100	141	11022	141	57832601
-3317	1374	-2295	-4575	7462	1234	-125	309	99	142	11076	142	57832602
-3223	1284	-2384	-6546	8120	1723	-125	309	99	143	11178	143	57832603
-3596	19	-1994	-7977	9306	2250	-122	306	102	144	11232	144	57832604
-3460	877	-919	-6557	10256	2570	-122	306	102	145	11334	145	57832607
-2730	2372	-92	-2465	9514	2352	-120	304	106	146	11388	146	57832639
-2032	1568	-987	1500	8185	2015	-120	304	106	147	11490	147	57832640
-998	-93	-1313	4328	7840	706	-124	316	98	148	11544	148	57832642
-4510	5106	-3945	5845	8523	-682	-124	316	98	149	11646	149	57832643
-3136	2221	-2477	4561	9341	1533	-125	315	89	150	11700	150	57832643
-1771	2466	-3387	5029	9357	1813	-125	315	89	151	11802	151	57832646
-2412	3008	-3139	5269	9751	1446	-123	313	79	152	11856	152	57832648
-2011	2928	-3218	4970	9834	1816	-123	313	79	153	11958	153	57832649
-1663	2937	-3621	4619	9639	1931	-122	320	74	154	12012	154	57832654
-1800	3154	-4003	4181	9182	1583	-122	320	74	155	12114	155	57832658
-1979	3218	-4348	3668	8416	1208	-125	321	79	156	12168	156	57832689
-2118	3288	-4491	3018	7473	835	-125	321	79	157	12270	157	57832689
-2364	3406	-4502	2339	6550	454	-124	316	62	158	12324	158	57832718
-2738	3455	-4519	1658	5723	100	-124	316	62	159	12426	159	57832736
-3112	3457	-4509	958	4947	-180	-124	318	58	160	12480	160	57832737
-3313	3331	-4405	275	4068	-338	-124	318	58	161	12582	161	57832737
-3468	3141	-4348	-379	2972	-605	-126	316	60	162	12636	162	57832737
-3778	3077	-4232	-1077	1580	-958	-126	316	60	163	12738	163	57832737
-4002	3015	-4073	-1894	-423	-1569	-130	316	56	164	12792	164	57832738
-3967	2692	-3909	-2826	-3278	-2274	-130	316	56	165	12894	165	57832738
-4626	2506	-3537	-3936	-6805	-3158	-124	322	68	166	12948	166	57832738
-5345	2327	-3111	-5258	-11032	-4330	-124	322	68	167	13050	167	57832738
-6038	2273	-2428	-6808	-15642	-5404	-125	319	67	168	13104	168	57832739
-6720	2392	-1694	-8384	-20514	-6497	-125	319	67	169	13206	169	57832739
-7143	2480	-1025	-9807	-25731	-7447	-124	320	82	170	13260	170	57832739
-7350	2713	-832	-11174	-30919	-7877	-124	320	82	171	13362	171	57832740
-7888	2794	-486	-12893	-32768	-8236	-109	311	109	172	13416	172	57832740
-8789	2253	661	-14672	-32768	-8177	-109	311	109	173	13518	173	57832773
-9026	1816	2072	-15697	-32768	-7948	-100	292	132	174	13572	174	57832773
-8939	1409	3267	-15799	-32768	-7363	-100	292	132	175	13674	175	57832776
-8514	1042	3794	-15134	-32768	-6423	-93	273	163	176	13728	176	57832776
-7967	624	3781	-14226	-32768	-5363	-93	273	163	177	13830	177	57832777
-7328	334	3368	-13307	-32768	-4226	-80	248	176	178	13884	178	57832780
-5974	-53	2591	-12648	-32768	-2915	-80	248	176	179	13986	179	57832780
-4791	-440	1311	-12081	-32768	-1646	-76	214	192	180	14040	180	57832782
-2753	-1037	-552	-12121	-32768	-474	-76	214	192	181	14142	181	57832787
-769	-1591	-1939	-11213	-32768	103	-66	174	182	182	14196	182	57832787
662	-1947	-3315	-9666	-32768	76	-66	174	182	183	14298	183	57832822
1726	-1959	-4312	-7935	-32768	-225	-52	142	178	184	14352	184	57832822
2977	-1463	-4935	-6278	-32768	-653	-52	142	178	185	14454	185	57832825
4135	-859	-5278	-4841	-32768	-811	-55	119	149	186	14508	186	57832826
5030	-547	-5629	-3534	-32768	-697	-55	119	149	187	14610	187	57832826
5783	-310	-5986	-2509	-32768	-387	-63	103	121	188	14664	188	57832829
6461	-208	-6573	-1646	-32768	83	-63	103	121	189	14766	189	57832830
7669	-312	-6751	-1008	-28652	498	-57	93	93	190	14820	190	57832833
8757	-353	-6986	-166	-23409	461	-57	93	93	191	14922	191	57832833
9443	-357	-7451	1052	-18223	160	-53	83	83	192	14976	192	57832837
9696	-167	-7918	2127	-13289	73	-53	83	83	193	15078	193	57832870
9627	-217	-7878	2446	-9117	50	-63	81	73	194	15132	194	57832871
9147	-392	-7326	2337	-5805	-209	-63	81	73	195	15234	195	57832874
8275	-328	-6569	2195	-3301	-553	-58	86	72	196	15288	196	57832874
7344	-267	-5805	1889	-1856	-792	-58	86	72	197	15390	197	57832876
6329	-150	-5086	1388	-1300	-1034	-59	85	67	198	15444	198	57832878
5454	8	-4555	782	-1417	-1304	-59	85	67	199	15546	199	57832878
4829	63	-3820	158	-1467	-1416	-62	84	64	200	15600	200	57832881
4574	98	-3474	-166	-1041	-1343	-62	84	64	201	15702	201	57832882
4702	-155	-2989	-396	48	-1237	-57	81	65	202	15756	202	57832885
5167	-434	-2691	-481	1813	-1289	-57	81	65	203	15858	203	57832920
5560	-735	-2128	-527	4243	-1448	-63	79	67	204	15912	204	57832920
5813	-891	-1507	-400	7120	-1742	-63	79	67	205	16014	205	57832952
5750	-1006	-1034	-67	10265	-2142	-59	81	75	206	16068	206	57832957
5658	-1011	-781	405	13594	-2626	-59	81	75	207	16170	207	57832958
5676	-1007	-705	969	17321	-2990	-65	85	81	208	16224	208	57832958
5630	-1023	-804	1580	21536	-3401	-65	85	81	209	16326	209	57832958
5324	-1117	-869	2240	26297	-3893	-71	89	97	210	16380	210	57832958
4796	-1079	-1007	2760	31439	-4414	-71	89	97	211	16482	211	57832959
3935	-935	-1380	3151	32767	-4969	-69	99	117	212	16536	212	57832959
2797	-636	-1391	3364	32767	-5313	-69	99	117	213	16638	213	57832959
1398	-335	-1168	3444	32767	-5333	-75	123	135	214	16692	214	57832959
125	-182	-1425	3491	32767	-5126	-75	123	135	215	16794	215	57832977
-835	-10	-1933	3581	32767	-4436	-83	145	155	216	16848	216	57832977
-1223	-418	-3596	3857	32767	-3616	-83	145	155	217	16950	217	57832980
-3023	346	-3034	3178	32767	-2905	-88	182	170	218	17004	218	57832980
-3675	1123	-3020	3184	32767	-1425	-88	182	170	219	17106	219	57832983
-5054	1717	-3321	4054	32767	-11	-90	226	168	220	17160	220	57832984
-5862	2040	-3958	5048	32767	1657	-90	226	168	221	17262	221	57832984
-5940	2372	-4838	5820	32767	3298	-93	267	161	222	17316	222	57832989
-6023	2823	-5254	6061	32767	4645	-93	267	161	223	17418	223	57832989
-6120	3131	-5800	6033	32767	5910	-99	299	143	224	17472	224	57832993
-6417	3340	-6345	5767	32767	6998	-99	299	143	225	17574	225	57833025
-7111	3346	-6254	5541	32767	8058	-107	323	123	226	17628	226	57833026
-7016	3589	-6223	6152	32767	9345	-107	323	123	227	17730	227	57833029
-5974	4027	-7539	7372	32767	10279	-108	334	98	228	17784	228	57833029
-5675	4412	-8645	6980	32767	10369	-108	334	98	229	17886	229	57833031
-5261	4305	-9626	6535	32767	9948	-121	337	61	230	17940	230	57833033
-4371	3424	-9840	5766	32767	9153	-121	337	61	231	18042	231	57833033
-1935	2651	-10861	7556	32767	8318	-121	335	31	232	18096	232	57833038
720	1144	-12505	11028	32767	7493	-121	335	31	233	18198	233	57833038
523	1425	-13362	13889	32767	6300	-124	320	10	234	18252	234	57833042
-2941	838	-9579	12489	32767	3026	-124	320	10	235	18354	235	57833074
-3878	2993	-6306	8705	32767	-2075	-112	308	-14	236	18408	236	57833074
-3441	3182	-2970	4221	26907	-5787	-112	308	-14	237	18510	237	57833078
-2055	4065	-1114	1673	16962	-6837	-113	307	-33	238	18564	238	57833078
-1608	4799	-628	995	8297	-6381	-113	307	-33	239	18666	239	57833081
-1366	3881	-1707	397	330	-5355	-114	294	-32	240	18720	240	57833082
-948	2798	-4199	189	-5897	-4623	-114	294	-32	241	18822	241	57833082
-880	1641	-5721	-70	-9807	-4496	-113	311	-33	242	18876	242	57833087
-1485	1427	-6002	-922	-12415	-4657	-113	311	-33	243	18978	243	57833087
-2823	1827	-5227	-1718	-14323	-4845	-106	308	-22	244	19032	244	57833121
-4150	2197	-4456	-2290	-16139	-4780	-106	308	-22	245	19134	245	57833122
-5122	2148	-4120	-2795	-18070	-4151	-107	323	-15	246	19188	246	57833125
-5799	1932	-3532	-3360	-20093	-3463	-107	323	-15	247	19290	247	57833125
-6029	1635	-2323	-3985	-22312	-2685	-108	326	-12	248	19344	248	57833126
-6244	1349	-1138	-4653	-24999	-2072	-108	326	-12	249	19446	249	57833129
-6438	1122	-41	-5323	-28348	-1703	-112	332	10	250	19500	250	57833129
-6437	686	993	-5917	-32170	-1381	-112	332	10	251	19602	251	57833131
-6449	510	1815	-6380	-32768	-1436	-115	341	31	252	19656	252	57833138
-6361	412	2109	-6868	-32768	-1462	-115	341	31	253	19758	253	57833138
-4884	-865	1567	-7794	-32768	-1751	-99	335	69	254	19812	254	57833148
-6888	787	3374	-9311	-32768	-2882	-99	335	69	255	19914	255	57833148
-7384	905	3721	-10181	-32768	-3689	-104	328	96	256	19968	256	57833150
-6510	789	2837	-10375	-32768	-4085	-104	328	96	257	20070	257	57833184
-6147	1121	3152	-11278	-32768	-4175	-101	305	137	258	20124	258	57833188
-5192	604	3025	-12528	-32768	-4165	-101	305	137	259	20226	259	57833188
-3884	-15	2735	-13639	-32768	-4120	-83	279	163	260	20280	260	57833188
-2719	-144	2876	-14063	-32768	-3804	-83	279	163	261	20382	261	57833190
-2148	-215	2651	-13932	-32768	-3659	-71	233	187	262	20436	262	57833191
-1725	-145	2615	-13679	-32768	-3455	-71	233	187	263	20538	263	57833192
-1245	324	2633	-13176	-32768	-3078	-71	195	183	264	20592	264	57833195
-981	628	2596	-12697	-32768	-2647	-71	195	183	265	20694	265	57833196
-543	518	1858	-12238	-32768	-2242	-58	160	180	266	20748	266	57833231
357	554	832	-11574	-32768	-1632	-58	160	180	267	20850	267	57833231
1016	311	83	-11158	-32768	-1038	-46	122	156	268	20904	268	57833232
1945	-3	-1300	-10313	-32768	-574	-46	122	156	269	21006	269	57833235
2842	-455	-2849	-9124	-32768	-373	-52	106	130	270	21060	270	57833235
4061	-367	-4544	-7783	-32768	-231	-52	106	130	271	21162	271	57833239
5878	-266	-5918	-6448	-32768	-336	-52	84	88	272	21216	272	57833239
7965	-56	-7144	-4804	-32768	-401	-52	84	88	273	21318	273	57833241
10011	-76	-8229	-3121	-24160	-357	-48	88	62	274	21372	274	57833245
10817	-428	-8089	-1628	-14260	-334	-48	88	62	275	21474	275	57833246
10331	-876	-7454	-458	-4988	-725	-53	73	59	276	21528	276	57833280
9319	-1449	-6455	104	2251	-1556	-53	73	59	277	21630	277	57833281
7623	-1818	-5424	332	6853	-2503	-50	80	68	278	21684	278	57833283
5786	-1703	-4160	412	8998	-3160	-50	80	68	279	21786	279	57833284
4333	-1511	-2926	581	8893	-3594	-54	82	60	280	21840	280	57833284
3669	-1107	-2006	780	7542	-3742	-54	82	60	281	21942	281	57833288
3513	-762	-1406	567	6223	-3760	-56	82	72	282	21996	282	57833288
3095	-401	-746	118	5769	-3734	-56	82	72	283	22098	283	57833290
2878	-324	183	-143	6182	-3591	-57	85	79	284	22152	284	57833293
2856	-322	1298	-498	6674	-3558	-57	85	79	285	22254	285	57833293
3487	-347	2170	-752	7224	-3417	-60	80	80	286	22308	286	57833329
4704	-105	2299	-658	8473	-3308	-60	80	80	287	22410	287	57833332
5161	-225	1678	776	11538	-3427	-62	84	92	288	22464	288	57833333
4947	-395	931	2263	15969	-3939	-62	84	92	289	22566	289	57833358
4548	-366	353	3460	21095	-4635	-72	96	98	290	22620	290	57833358
3974	-226	-324	4477	26435	-5502	-72	96	98	291	22722	291	57833362
2960	81	-798	5326	31688	-6332	-73	97	107	292	22776	292	57833362
1721	408	-1303	5963	32767	-6824	-73	97	107	293	22878	293	57833368
533	705	-2085	6370	32767	-7002	-80	110	130	294	22932	294	57833368
-748	960	-3003	6574	32767	-6930	-80	110	130	295	23034	295	57833368
-2087	1179	-3849	6631	32767	-6576	-93	143	147	296	23088	296	57833371
-3317	1478	-4466	6541	32767	-5969	-93	143	147	297	23190	297	57833372
-4257	1830	-4815	6296	32767	-4979	-98	174	158	298	23244	298	57833375
-5185	2049	-5201	5960	32767	-3727	-98	174	158	299	23346	299	57833379
-6095	2051	-5496	5476	32767	-2260	-96	220	162	300	23400	300	57833380
-6591	2118	-5695	4872	32767	-841	-96	220	162	301	23502	301	57833381
-7503	2109	-4924	4301	32767	344	-101	253	159	302	23556	302	57833381
-7941	2453	-4592	4008	32767	1536	-101	253	159	303	23658	303	57833390
-8106	2507	-4986	3297	32767	2826	-98	298	142	304	23712	304	57833391
-7880	2428	-5372	2191	32767	4111	-98	298	142	305	23814	305	57833393
-7839	2586	-5330	1272	32767	5246	-102	324	110	306	23868	306	57833403
-7628	2538	-5177	810	32767	6208	-102	324	110	307	23970	307	57833403
-6931	2194	-5423	1405	32767	7114	-106	336	84	308	24024	308	57833438
-6508	2290	-5977	3067	32767	7599	-106	336	84	309	24126	309	57833438
-5903	2555	-6203	4314	32767	7548	-113	341	53	310	24180	310	57833441
-4872	2571	-6384	4770	32767	6797	-113	341	53	311	24282	311	57833442
-4025	2802	-6380	4309	32767	5246	-115	341	23	312	24336	312	57833442
-3147	2990	-6358	3098	32767	3481	-115	341	23	313	24438	313	57833445
-2079	2423	-6508	1703	26725	1776	-115	329	1	314	24492	314	57833446
-1019	1112	-5789	739	20188	126	-115	329	1	315	24594	315	57833449
-1026	-1008	-4617	650	14218	-2035	-114	318	-10	316	24648	316	57833449
-1260	-2100	-4979	1426	9074	-5104	-114	318	-10	317	24750	317	57833451
-5936	86	-4512	2439	5548	-7962	-114	314	-10	318	24804	318	57833484
-10862	3789	-1432	597	979	-8692	-114	314	-10	319	24906	319	57833485
-7873	3293	-2186	-801	-2606	-6984	-109	321	-17	320	24960	320	57833488
-6463	3616	-3008	-1465	-4912	-5105	-109	321	-17	321	25062	321	57833488
-4369	2731	-4678	-1878	-6685	-3091	-105	327	-15	322	25116	322	57833490
-3457	1757	-5934	-1870	-7348	-1889	-105	327	-15	323	25218	323	57833492
-3770	1630	-5864	-2093	-7176	-1406	-110	324	-6	324	25272	324	57833492
-4210	1677	-4802	-2583	-6979	-1326	-110	324	-6	325	25374	325	57833495
-4095	1745	-3305	-3142	-7472	-1278	-108	330	-2	326	25428	326	57833496
-3488	1709	-1654	-3695	-9139	-1269	-108	330	-2	327	25530	327	57833501
-3008	1640	-130	-4045	-12186	-1234	-103	337	7	328	25584	328	57833537
-3007	1236	1009	-4188	-16498	-1398	-103	337	7	329	25686	329	57833538
-3765	1032	1693	-4301	-21702	-1828	-106	338	18	330	25740	330	57833538
-3861	1446	1518	-5067	-27244	-2325	-106	338	18	331	25842	331	57833539
-4985	485	2944	-6298	-32768	-2784	-108	340	36	332	25896	332	57833540
-6574	547	3101	-6614	-32768	-3743	-108	340	36	333	25998	333	57833542
-8509	756	3544	-7255	-32768	-4855	-101	339	69	334	26052	334	57833542
-10385	1096	4119	-7823	-32768	-5716	-101	339	69	335	26154	335	57833546
-11292	2036	3118	-8292	-32768	-6035	-96	324	108	336	26208	336	57833547
-10668	2075	607	-10503	-32768	-6010	-96	324	108	337	26310	337	57833580
-10171	1489	1458	-13078	-32768	-5237	-90	300	154	338	26364	338	57833581
-8261	1232	3702	-14591	-32768	-4213	-90	300	154	339	26466	339	57833583
-5897	1005	3869	-15305	-32768	-3700	-73	255	181	340	26520	340	57833586
-3515	13	3190	-15185	-32768	-2950	-73	255	181	341	26622	341	57833586
-1802	-947	3039	-14486	-32768	-2102	-63	219	187	342	26676	342	57833588
-2017	-1086	2852	-13037	-32768	-1610	-63	219	187	343	26778	343	57833588
-2884	-878	3159	-11564	-32768	-1343	-60	174	182	344	26832	344	57833590
-2682	52	2574	-10224	-32768	-1263	-60	174	182	345	26934	345	57833596
-2436	478	1696	-10010	-32768	-1245	-54	138	172	346	26988	346	57833596
-2547	854	1044	-9909	-32768	-1451	-54	138	172	347	27090	347	57833605
-2409	1137	-346	-9218	-32768	-1331	-45	115	151	348	27144	348	57833606
-1671	1230	-2273	-8291	-32768	-1039	-45	115	151	349	27246	349	57833609
-517	1010	-4094	-7587	-32768	-681	-47	89	119	350	27300	350	57833643
961	856	-5988	-7046	-32768	-368	-47	89	119	351	27402	351	57833643
3097	667	-7769	-6651	-32333	-231	-46	86	96	352	27456	352	57833646
5620	632	-9013	-5927	-25702	-202	-46	86	96	353	27558	353	57833647
8305	355	-9518	-4781	-17994	-200	-45	81	77	354	27612	354	57833649
10112	21	-8631	-3175	-9717	-344	-45	81	77	355	27714	355	57833650
10995	-898	-6394	-1903	-2414	-585	-52	80	72	356	27768	356	57833650
10507	-1625	-4685	-889	2875	-1099	-52	80	72	357	27870	357	57833654
9296	-1976	-2870	-466	5883	-1840	-48	78	74	358	27924	358	57833654
7847	-1866	-1704	-259	6837	-2608	-48	78	74	359	28026	359	57833659
6559	-1511	-1652	17	6770	-3240	-46	84	78	360	28080	360	57833665
5170	-1042	-1779	-178	6320	-3687	-46	84	78	361	28182	361	57833668
3856	-555	-1612	-761	5797	-3950	-48	80	84	362	28236	362	57833702
3131	-61	-1597	-1237	5455	-4063	-48	80	84	363	28338	363	57833702
2763	-216	-1304	-1858	5266	-3887	-52	84	88	364	28392	364	57833705
3141	-75	-990	-2806	5204	-3516	-52	84	88	365	28494	365	57833706
3214	-92	848	-2782	5613	-3172	-55	85	87	366	28548	366	57833708
4383	-52	805	-2146	6978	-2855	-55	85	87	367	28650	367	57833709
4416	2	1426	-1419	9376	-2537	-60	88	96	368	28704	368	57833710
4247	-162	1529	-493	12885	-2504	-60	88	96	369	28806	369	57833713
4454	-278	769	683	17590	-2572	-53	87	105	370	28860	370	57833713
4431	-200	13	1865	23712	-2743	-53	87	105	371	28962	371	57833716
3872	-26	-313	2707	30496	-2867	-57	91	119	372	29016	372	57833749
2977	110	-708	3368	32767	-2893	-57	91	119	373	29118	373	57833749
1797	104	-1137	3778	32767	-2679	-68	114	142	374	29172	374	57833752
386	275	-1120	3776	32767	-2130	-68	114	142	375	29274	375	57833753
-911	364	-1102	3589	32767	-1131	-70	150	154	376	29328	376	57833755
-2131	416	-1489	3382	32767	-67	-70	150	154	377	29430	377	57833756
-3266	801	-1904	2947	32767	1053	-73	181	169	378	29484	378	57833756
-4045	1138	-2364	2630	32767	2484	-73	181	169	379	29586	379	57833761
-4746	1382	-3181	2486	32767	4111	-74	222	174	380	29640	380	57833761
-5427	1672	-3748	2292	32767	5869	-74	222	174	381	29742	381	57833765
-5603	1822	-4759	2155	32767	7760	-71	259	167	382	29796	382	57833798
-6311	2028	-5613	2004	32767	9785	-71	259	167	383	29898	383	57833799
-6727	2969	-6628	1446	32767	11943	-78	306	152	384	29952	384	57833801
-6440	3197	-7470	446	32767	14510	-78	306	152	385	30054	385	57833802
-6920	2512	-7347	-42	32767	16205	-84	342	116	386	30108	386	57833806
-7917	2212	-6631	941	32767	16112	-84	342	116	387	30210	387	57833807
-8332	2167	-5737	2921	32767	15147	-94	352	76	388	30264	388	57833807
-7493	4005	-5403	4779	32767	13083	-94	352	76	389	30366	389	57833810
-5495	5839	-5471	3664	32767	9607	-102	352	40	390	30420	390	57833811
-4246	4372	-3976	637	32767	6953	-102	352	40	391	30522	391	57833845
-3194	3943	-3921	-370	32767	5364	-101	337	19	392	30576	392	57833845
-2502	3702	-5018	-831	28976	4232	-101	337	19	393	30678	393	57833848
-2423	3156	-6024	-1096	23551	2959	-105	335	3	394	30732	394	57833849
-2475	2755	-6920	-882	18800	1435	-105	335	3	395	30834	395	57833849
-2341	2103	-7160	-356	14675	46	-112	326	-12	396	30888	396	57833853
-2431	1560	-6494	28	11213	-1551	-112	326	-12	397	30990	397	57833853
-2521	1199	-5084	-6	8055	-2964	-114	324	-16	398	31044	398	57833856
-2682	1213	-3632	-158	4822	-4078	-114	324	-16	399	31146	399	57833860
-2751	1341	-2650	-305	1465	-4914	-106	328	-14	400	31200	400	57833861
-2770	1586	-2408	-440	-1808	-5199	-106	328	-14	401	31302	401	57833895
-2770	1625	-3219	-642	-4586	-5204	-105	329	-7	402	31356	402	57833896
-2618	1476	-4231	-1027	-6391	-5006	-105	329	-7	403	31458	403	57833897
-2674	1325	-4506	-1512	-7134	-4936	-104	330	-6	404	31512	404	57833899
-3146	1289	-4087	-1820	-7399	-4997	-104	330	-6	405	31614	405	57833899
-3759	1294	-3092	-1870	-7888	-4961	-99	337	-7	406	31668	406	57833903
-4396	1173	-1818	-1786	-9081	-4944	-99	337	-7	407	31770	407	57833903
-4763	1117	-829	-1604	-11180	-4880	-98	342	2	408	31824	408	57833907
-4823	929	70	-1314	-14058	-4987	-98	342	2	409	31926	409	57833908
-4767	612	624	-843	-17363	-5118	-91	343	11	410	31980	410	57833909
-4883	491	854	-375	-20912	-5399	-91	343	11	411	32082	411	57833943
-5250	522	1134	8	-24837	-6034	-85	347	27	412	32136	412	57833943
-5894	537	1355	484	-29409	-6739	-85	347	27	413	32238	413	57833946
-6744	794	1644	955	-32768	-7246	-92	348	42	414	32292	414	57833947
-8017	810	2292	1148	-32768	-7446	-92	348	42	415	32394	415	57833947
-9641	1294	2731	1390	-32768	-7024	-75	351	69	416	32448	416	57833950
-11347	1322	2940	1282	-32768	-6299	-75	351	69	417	32550	417	57833950
-12198	1431	2456	488	-32768	-5421	-72	336	104	418	32604	418	57833954
-11973	1557	1864	-1374	-32768	-4600	-72	336	104	419	32706	419	57833954
-10839	1483	1491	-4005	-32768	-3739	-69	309	143	420	32760	420	57833957
-8864	339	1040	-7109	-32768	-2760	-69	309	143	421	32862	421	57833997
-6805	-594	881	-9881	-32768	-2625	-62	274	184	422	32916	422	57834006
-5035	-972	680	-11348	-32768	-2739	-62	274	184	423	33018	423	57834011
-3986	-961	763	-12079	-32768	-2995	-57	231	193	424	33072	424	57834012
-3932	-437	1204	-12500	-32768	-3180	-57	231	193	425	33174	425	57834013
-3789	193	1701	-12679	-32768	-3211	-50	190	198	426	33228	426	57834013
-3144	279	835	-12074	-32768	-3062	-50	190	198	427	33330	427	57834014
-2990	608	14	-11048	-32768	-2563	-43	151	173	428	33384	428	57834014
-2804	912	-563	-10073	-32768	-1919	-43	151	173	429	33486	429	57834014
-2235	892	-1802	-8746	-32768	-1087	-31	125	157	430	33540	430	57834014
-1089	868	-3496	-7525	-32768	-261	-31	125	157	431	33642	431	57834018
368	702	-5044	-6749	-32768	364	-36	102	132	432	33696	432	57834018
2575	433	-6585	-6153	-32768	817	-36	102	132	433	33798	433	57834029
5061	61	-7357	-5620	-28479	1126	-34	84	106	434	33852	434	57834029
7027	-547	-7160	-4903	-21679	1166	-34	84	106	435	33954	435	57834033
8907	-1148	-6546	-3423	-14913	1126	-27	83	91	436	34008	436	57834067
10410	-1734	-5598	-1720	-8582	809	-27	83	91	437	34110	437	57834067
11296	-2118	-4474	-419	-3202	212	-29	81	83	438	34164	438	57834069
11048	-2515	-3426	537	719	-577	-29	81	83	439	34266	439	57834070
9941	-2544	-2625	1146	2989	-1405	-32	80	84	440	34320	440	57834073
8460	-2371	-2189	1274	3787	-2039	-32	80	84	441	34422	441	57834073
6831	-1965	-1835	984	3596	-2630	-31	81	83	442	34476	442	57834074
5314	-1467	-1908	527	3063	-3055	-31	81	83	443	34578	443	57834078
4165	-939	-2136	-146	2672	-3313	-33	79	95	444	34632	444	57834078
3542	-650	-2414	-881	2692	-3307	-33	79	95	445	34734	445	57834111
2725	-271	-1719	-1857	3072	-3212	-35	79	95	446	34788	446	57834112
3004	-365	-1342	-2379	3711	-3063	-35	79	95	447	34890	447	57834114
3443	-431	-488	-2892	4794	-2787	-41	81	101	448	34944	448	57834115
4046	-450	161	-2574	6670	-2535	-41	81	101	449	35046	449	57834115
4437	-572	93	-1397	9840	-2345	-40	88	94	450	35100	450	57834119
4411	-568	-22	-321	14548	-2255	-40	88	94	451	35202	451	57834119
4075	-473	147	593	20337	-2230	-39	89	111	452	35256	452	57834121
3711	-399	394	1681	26718	-2129	-39	89	111	453	35358	453	57834127
3091	-423	696	2902	32767	-1997	-40	100	126	454	35412	454	57834127
1952	-366	877	4159	32767	-1865	-40	100	126	455	35514	455	57834161
827	-403	632	5361	32767	-1413	-45	113	149	456	35568	456	57834162
-347	-555	-79	6493	32767	-839	-45	113	149	457	35670	457	57834164
-1863	-434	-854	7500	32767	-82	-49	147	171	458	35724	458	57834165
-3683	-22	-1294	8224	32767	1046	-49	147	171	459	35826	459	57834165
-5611	440	-2007	8549	32767	2404	-57	193	177	460	35880	460	57834169
-6698	463	-2930	8097	32767	4292	-57	193	177	461	35982	461	57834169
-7493	1195	-4391	7195	32767	6509	-69	259	167	462	36036	462	57834173
-8394	1231	-5404	5082	32767	9394	-69	259	167	463	36138	463	57834174
-9369	1308	-5823	2372	32767	12183	-69	305	151	464	36192	464	57834175
-10348	529	-4947	-209	32767	14392	-69	305	151	465	36294	465	57834208
-11458	2366	-3883	-1857	32767	14696	-74	350	114	466	36348	466	57834209
-9421	2967	-2726	-3410	32767	14851	-74	350	114	467	36450	467	57834211
-6646	3374	-1953	-2906	32767	16123	-77	365	69	468	36504	468	57834213
-3755	3890	-2402	-1291	32767	16282	-77	365	69	469	36606	469	57834217
-1018	3601	-3349	-38	32767	15670	-92	360	20	470	36660	470	57834217
639	3616	-4468	-9	32767	13941	-92	360	20	471	36762	471	57834218
1672	3913	-4907	-985	32767	11293	-97	337	-5	472	36816	472	57834220
2979	3723	-4435	-2224	32767	8034	-97	337	-5	473	36918	473	57834220
3651	3656	-3496	-2988	32767	4187	-106	320	-20	474	36972	474	57834226
3659	3817	-2520	-2674	28056	512	-106	320	-20	475	37074	475	57834259
2587	3803	-2168	-1238	18575	-2467	-107	301	-37	476	37128	476	57834262
1316	3386	-2002	649	9308	-4668	-107	301	-37	477	37230	477	57834262
-193	2617	-2234	2218	616	-6039	-100	298	-42	478	37284	478	57834267
-1472	1935	-3134	3435	-6462	-6716	-100	298	-42	479	37386	479	57834269
-2199	1568	-4212	3921	-11472	-6778	-101	309	-47	480	37440	480	57834269
-2391	1205	-4936	3792	-14599	-6465	-101	309	-47	481	37542	481	57834269
-2616	1284	-5476	3349	-16484	-6205	-97	323	-37	482	37596	482	57834270
-2704	1420	-5535	2665	-17621	-5762	-97	323	-37	483	37698	483	57834270
-2798	1416	-5020	1902	-18388	-5337	-92	324	-26	484	37752	484	57834273
-2904	1263	-4067	1165	-19179	-4910	-92	324	-26	485	37854	485	57834307
-3105	1061	-2683	483	-20383	-4698	-89	339	-17	486	37908	486	57834307
-3592	987	-1403	7	-22540	-4764	-89	339	-17	487	38010	487	57834309
-4211	973	-306	-227	-26081	-4997	-89	341	-5	488	38064	488	57834309
-4645	800	710	-243	-30695	-5443	-89	341	-5	489	38166	489	57834312
-5525	378	1448	-76	-32768	-5801	-76	346	10	490	38220	490	57834313
-7588	92	1272	58	-32768	-6231	-76	346	10	491	38322	491	57834313
-7239	-18	1737	319	-32768	-6092	-81	355	41	492	38376	492	57834318
-8005	-35	1959	152	-32768	-5551	-81	355	41	493	38478	493	57834319
-8622	-458	1962	-655	-32768	-5782	-70	344	78	494	38532	494	57834353
-9186	-262	1026	-1853	-32768	-6630	-70	344	78	495	38634	495	57834353
-8651	-86	439	-3811	-32768	-7164	-60	336	118	496	38688	496	57834353
-7665	-461	835	-6123	-32768	-7865	-60	336	118	497	38790	497	57834356
-6827	-636	1202	-8253	-32768	-8322	-63	311	153	498	38844	498	57834357
-5969	-1389	2656	-10192	-32768	-8551	-63	311	153	499	38946	499	57834360
-5045	-1390	3460	-10769	-32768	-8649	-46	272	184	500	39000	500	57834360
-4179	-1028	4459	-10811	-32768	-8418	-46	272	184	501	39102	501	57834363
-3176	-687	4317	-10764	-32768	-7989	-43	235	195	502	39156	502	57834368
-1904	-771	3688	-10914	-32768	-7380	-43	235	195	503	39258	503	57834368
-1223	-720	3051	-11037	-32768	-6914	-32	192	204	504	39312	504	57834403
-997	-580	2131	-11097	-32768	-6641	-32	192	204	505	39414	505	57834404
-1001	-358	1380	-11149	-32768	-6399	-25	163	187	506	39468	506	57834406
-803	-137	451	-10954	-32768	-6270	-25	163	187	507	39570	507	57834407
-320	-55	-357	-10539	-32768	-6092	-24	132	166	508	39624	508	57834408
541	170	-1248	-10061	-32768	-5852	-24	132	166	509	39726	509	57834410
1750	2	-2115	-9605	-32768	-5494	-27	111	147	510	39780	510	57834411
2844	247	-2660	-8920	-32768	-5156	-27	111	147	511	39882	511	57834413
3959	374	-3085	-8070	-31451	-4631	-20	98	120	512	39936	512	57834416
5165	274	-3258	-6926	-26151	-3928	-20	98	120	513	40038	513	57834417
6519	105	-3380	-5423	-20123	-3066	-23	87	103	514	40092	514	57834450
7565	-141	-3132	-3715	-13415	-2341	-23	87	103	515	40194	515	57834450
8476	-631	-2641	-2013	-6548	-1607	-21	81	95	516	40248	516	57834454
8942	-1099	-2023	-506	-262	-1230	-21	81	95	517	40350	517	57834454
8846	-1471	-1637	615	4765	-1085	-21	83	101	518	40404	518	57834454
8475	-1680	-1370	1318	8229	-1135	-21	83	101	519	40506	519	57834458
7463	-1608	-1354	1861	10373	-1397	-25	87	101	520	40560	520	57834458
6231	-1324	-1388	2124	11418	-1630	-25	87	101	521	40662	521	57834461
5054	-993	-1149	1932	11501	-1962	-33	87	101	522	40716	522	57834462
4079	-683	-662	1492	10971	-2184	-33	87	101	523	40818	523	57834466
3394	-565	-183	1106	10245	-2340	-31	87	121	524	40872	524	57834498
3025	-651	510	893	9858	-2204	-31	87	121	525	40974	525	57834498
2534	-617	963	873	9987	-2058	-31	95	121	526	41028	526	57834501
2783	-767	1413	904	10995	-1882	-31	95	121	527	41130	527	57834501
3184	-917	1655	1004	13072	-1685	-34	102	130	528	41184	528	57834504
3628	-944	1736	1261	16287	-1505	-34	102	130	529	41286	529	57834505
3614	-959	1886	1866	20523	-1364	-35	105	135	530	41340	530	57834506
3301	-1080	1834	2646	25507	-1276	-35	105	135	531	41442	531	57834510
2762	-1230	1795	3558	31398	-1093	-39	111	151	532	41496	532	57834510
1595	-1210	1848	4559	32767	-846	-39	111	151	533	41598	533	57834514
9	-1059	1802	5269	32767	-411	-39	141	169	534	41652	534	57834547
-1667	-860	1285	5610	32767	376	-39	141	169	535	41754	535	57834547
-3153	-617	647	5618	32767	1521	-43	177	183	536	41808	536	57834550
-4432	-273	-839	5091	32767	2964	-43	177	183	537	41910	537	57834552
-5798	88	-1396	4072	32767	4916	-53	231	181	538	41964	538	57834553
-6249	94	-2258	2646	32767	7160	-53	231	181	539	42066	539	57834554
-6972	285	-3801	238	32767	9240	-52	280	166	540	42120	540	57834557
-7661	598	-4123	-2763	32767	11720	-52	280	166	541	42222	541	57834559
-8079	865	-4288	-5006	32767	14334	-56	328	140	542	42276	542	57834559
-7933	678	-4313	-6984	32767	16919	-56	328	140	543	42378	543	57834561
-7805	500	-3897	-8899	32767	18410	-56	352	98	544	42432	544	57834594
-7826	1598	-2795	-10523	32767	18342	-56	352	98	545	42534	545	57834597
-6649	2319	-1772	-11247	32767	18556	-68	370	54	546	42588	546	57834598
-4055	2625	-1407	-10652	32767	19226	-68	370	54	547	42690	547	57834598
-1504	3101	-759	-9961	32767	18614	-86	358	12	548	42744	548	57834601
1007	3862	-868	-9275	32767	16822	-86	358	12	549	42846	549	57834610
2661	4433	-1053	-9018	32767	14054	-103	331	-15	550	42900	550	57834610
4087	5003	-888	-8885	32767	10718	-103	331	-15	551	43002	551	57834611
5029	5347	-734	-8084	30592	6804	-102	314	-24	552	43056	552	57834611
5108	5328	-733	-6237	20533	2804	-102	314	-24	553	43158	553	57834638
4137	4865	-1092	-3082	10210	-1239	-106	302	-28	554	43212	554	57834638
2430	4035	-2065	800	365	-4735	-106	302	-28	555	43314	555	57834641
416	3160	-3184	4212	-8021	-7358	-103	305	-43	556	43368	556	57834642
-1261	2278	-4379	6239	-14377	-8997	-103	305	-43	557	43470	557	57834642
-2613	1739	-5638	6715	-18603	-9748	-107	313	-39	558	43524	558	57834645
-3435	1586	-6339	5771	-21163	-10019	-107	313	-39	559	43626	559	57834646
-3708	1615	-6370	4015	-22603	-9783	-99	325	-29	560	43680	560	57834648
-3673	1604	-6071	2236	-23150	-9239	-99	325	-29	561	43782	561	57834681
-3799	1592	-5708	934	-22882	-8379	-91	341	-19	562	43836	562	57834682
-3818	1199	-5021	71	-21964	-7343	-91	341	-19	563	43938	563	57834685
-3917	648	-4186	-527	-20905	-6267	-84	348	4	564	43992	564	57834685
-4102	175	-3440	-770	-20004	-5574	-84	348	4	565	44094	565	57834687
-4235	-211	-2400	-760	-19520	-5205	-85	353	3	566	44148	566	57834689
-4111	-564	-1187	-445	-19873	-5360	-85	353	3	567	44250	567	57834689
-3775	-885	-118	236	-21000	-5893	-77	355	21	568	44304	568	57834692
-3772	-1056	601	920	-22871	-6784	-77	355	21	569	44406	569	57834693
-4068	-952	1297	1485	-25676	-7970	-75	355	41	570	44460	570	57834704
-4704	-479	1809	2012	-29576	-9547	-75	355	41	571	44562	571	57834707
-5106	-860	2252	2305	-32768	-11248	-65	357	65	572	44616	572	57834708
-6071	-599	2583	2542	-32768	-12836	-65	357	65	573	44718	573	57834741
-7128	-702	3408	2672	-32768	-14065	-54	356	90	574	44772	574	57834741
-7850	-877	3371	3053	-32768	-14580	-54	356	90	575	44874	575	57834746
-8104	-940	2891	2741	-32768	-14469	-42	336	126	576	44928	576	57834747
-7705	-1172	3268	1150	-32768	-14360	-42	336	126	577	45030	577	57834747
-6927	-1677	3618	-93	-32768	-13832	-38	308	164	578	45084	578	57834748
-5783	-1982	3637	-754	-32768	-12879	-38	308	164	579	45186	579	57834748
-4826	-2086	3651	-1403	-32768	-11890	-29	273	181	580	45240	580	57834752
-3835	-1970	3462	-1997	-32768	-10981	-29	273	181	581	45342	581	57834753
-2704	-1711	2973	-2885	-32768	-10221	-29	233	193	582	45396	582	57834755
-1440	-1630	2360	-4039	-32768	-9534	-29	233	193	583	45498	583	57834788
-905	-1613	2079	-5060	-32768	-9170	-23	199	193	584	45552	584	57834788
-706	-1303	2059	-5548	-32768	-8944	-23	199	193	585	45654	585	57834791
-610	-831	1797	-5466	-32768	-8864	-17	171	185	586	45708	586	57834792
-481	-296	1092	-5061	-32768	-8640	-17	171	185	587	45810	587	57834794
-135	242	143	-4669	-32768	-8140	-20	142	170	588	45864	588	57834799
532	698	-952	-4429	-32768	-7355	-20	142	170	589	45966	589	57834799
1347	868	-1969	-4313	-32768	-6440	-24	118	158	590	46020	590	57834803
2215	928	-2719	-4066	-29732	-5380	-24	118	158	591	46122	591	57834803
3300	688	-3104	-3533	-25039	-4277	-23	105	143	592	46176	592	57834807
4768	561	-3199	-2619	-19615	-3160	-23	105	143	593	46278	593	57834838
6832	183	-3466	-1346	-13607	-2064	-22	96	128	594	46332	594	57834838
8809	-375	-3322	-210	-7151	-1301	-22	96	128	595	46434	595	57834841
10099	-492	-2757	488	-775	-707	-30	96	122	596	46488	596	57834842
10771	-1118	-1070	574	4723	-315	-30	96	122	597	46590	597	57834845
10413	-1762	713	824	8561	-266	-23	89	125	598	46644	598	57834845
9391	-1798	1698	1522	10464	-649	-23	89	125	599	46746	599	57834846
8146	-1578	1921	2018	10765	-1145	-28	100	126	600	46800	600	57834850
6811	-1456	1543	2122	10016	-1561	-28	100	126	601	46902	601	57834851
5633	-1223	834	2106	8922	-1917	-36	98	138	602	46956	602	57834885
4635	-1020	394	1898	7959	-2281	-36	98	138	603	47058	603	57834886
4036	-716	322	1543	7526	-2565	-33	109	139	604	47112	604	57834886
3805	-671	260	1198	7735	-2684	-33	109	139	605	47214	605	57834889
3479	-690	547	993	8672	-2702	-41	111	143	606	47268	606	57834889
3490	-720	817	1068	10378	-2686	-41	111	143	607	47370	607	57834893
3603	-754	761	1417	13352	-2472	-34	114	144	608	47424	608	57834893
3364	-877	518	1555	17805	-2178	-34	114	144	609	47526	609	57834895
2521	-875	483	1648	23679	-1857	-41	129	155	610	47580	610	57834900
1406	-622	434	1698	30256	-1225	-41	129	155	611	47682	611	57834901
236	-444	141	1609	32767	-384	-38	136	176	612	47736	612	57834937
-854	-492	-618	1723	32767	869	-38	136	176	613	47838	613	57834952
-1960	-464	-1705	1945	32767	2368	-46	182	178	614	47892	614	57834952
-3588	-39	-1722	1867	32767	4092	-46	182	178	615	47994	615	57834953
-4980	-450	-2462	1371	32767	6383	-49	223	181	616	48048	616	57834953
-6574	-759	-2849	1502	32767	8294	-49	223	181	617	48150	617	57834953
-7657	-1008	-3575	1656	32767	10026	-49	275	169	618	48204	618	57834953
-8395	-930	-4468	1314	32767	11611	-49	275	169	619	48306	619	57834953
-8991	-966	-5471	-90	32767	13171	-56	330	142	620	48360	620	57834954
-9843	-1705	-5739	-3010	32767	13826	-56	330	142	621	48462	621	57834954
-10752	297	-5888	-6473	32767	13809	-64	358	98	622	48516	622	57834983
-10691	1107	-4644	-11686	32767	15597	-64	358	98	623	48618	623	57834983
-8801	27	-2303	-17977	32767	18121	-64	374	54	624	48672	624	57834986
-4472	-648	-507	-18848	32767	19149	-64	374	54	625	48774	625	57834986
-389	-61	-1898	-11838	32767	17979	-81	357	7	626	48828	626	57834987
1389	1719	-3367	-4600	32767	15041	-81	357	7	627	48930	627	57834991
2940	2313	-2974	-2506	32767	11149	-89	329	-25	628	48984	628	57834991
4134	2960	-1565	-2610	32767	5315	-89	329	-25	629	49086	629	57834994
4768	4030	148	-2604	32767	-989	-96	304	-44	630	49140	630	57834999
4703	5801	1782	-1759	29680	-5802	-96	304	-44	631	49242	631	57835000
3228	7540	2623	210	18251	-8472	-89	287	-55	632	49296	632	57835030
1377	8493	1965	2720	6709	-8870	-89	287	-55	633	49398	633	57835030
234	7966	1112	5155	-4002	-7390	-91	289	-63	634	49452	634	57835034
-440	6214	-195	7540	-13692	-5106	-91	289	-63	635	49554	635	57835034
-471	2546	-5599	9676	-21634	-3609	-86	304	-66	636	49608	636	57835036
-1539	1520	-9470	10600	-24681	-3664	-86	304	-66	637	49710	637	57835040
-1134	11	-8636	8755	-24897	-3341	-78	312	-58	638	49764	638	57835041
-1908	297	-7653	6276	-25336	-4141	-78	312	-58	639	49866	639	57835042
-2631	338	-6296	4926	-25293	-4734	-70	324	-40	640	49920	640	57835042
-3093	-103	-6143	4962	-24971	-4881	-70	324	-40	641	50022	641	57835048
-3481	-810	-5896	5049	-24413	-4900	-64	336	-30	642	50076	642	57835080
-2951	-1255	-5589	4517	-23569	-5041	-64	336	-30	643	50178	643	57835081
-2280	-2034	-3746	3435	-22616	-5450	-60	352	-20	644	50232	644	57835084
-4079	-1559	-1868	3647	-22074	-5892	-60	352	-20	645	50334	645	57835085
-6106	-1102	-444	4746	-22417	-5766	-55	353	-11	646	50388	646	57835086
-8718	-1322	1690	4851	-23581	-5252	-55	353	-11	647	50490	647	57835088
-7972	-781	1807	5080	-26628	-4331	-51	361	13	648	50544	648	57835088
-7623	-310	1878	5367	-31487	-4208	-51	361	13	649	50646	649	57835091
-7257	-382	2769	5757	-32768	-4692	-46	364	36	650	50700	650	57835092
-7922	-235	3168	6328	-32768	-5145	-46	364	36	651	50802	651	57835095
-8074	-462	2799	6718	-32768	-5220	-38	358	72	652	50856	652	57835128
-8170	-740	2061	6616	-32768	-5108	-38	358	72	653	50958	653	57835130
-8241	-1106	1504	5851	-32768	-5400	-42	346	112	654	51012	654	57835131
-8038	-1221	592	4470	-32768	-5919	-42	346	112	655	51114	655	57835132
-7510	-1635	-53	2212	-32768	-6725	-35	321	149	656	51168	656	57835135
-6897	-1937	80	-337	-32768	-7839	-35	321	149	657	51270	657	57835137
-5813	-2367	317	-2338	-32768	-8901	-34	280	176	658	51324	658	57835138
-4946	-2415	537	-3530	-32768	-9786	-34	280	176	659	51426	659	57835141
-4439	-2127	1103	-3991	-32768	-10505	-28	242	190	660	51480	660	57835142
-3573	-1568	1573	-3926	-32768	-10718	-28	242	190	661	51582	661	57835175
-2768	-1067	1504	-3537	-32768	-10427	-19	203	199	662	51636	662	57835175
-1973	-717	966	-2903	-32768	-9547	-19	203	199	663	51738	663	57835177
-1157	-487	426	-2363	-32768	-8381	-19	169	187	664	51792	664	57835179
-203	-183	-50	-1990	-32768	-7266	-19	169	187	665	51894	665	57835179
922	128	-695	-1531	-32768	-6176	-29	141	171	666	51948	666	57835183
2545	419	-1265	-1006	-28492	-5159	-29	141	171	667	52050	667	57835183
4440	656	-1702	-666	-23786	-4088	-30	130	160	668	52104	668	57835185
6243	593	-1813	-389	-18804	-3103	-30	130	160	669	52206	669	57835190
7752	237	-1595	13	-13428	-2099	-31	113	155	670	52260	670	57835191
8799	-285	-875	396	-7948	-1292	-31	113	155	671	52362	671	57835225
9261	-791	385	758	-2945	-905	-31	107	151	672	52416	672	57835226
9054	-1163	1782	1201	902	-830	-31	107	151	673	52518	673	57835228
8303	-1348	2601	1662	3195	-991	-33	111	149	674	52572	674	57835229
7197	-1393	2772	2073	4046	-1323	-33	111	149	675	52674	675	57835229
6111	-1228	2336	2388	3875	-1791	-38	116	148	676	52728	676	57835233
5243	-848	1554	2476	3271	-2344	-38	116	148	677	52830	677	57835233
4619	-402	628	2261	2758	-2764	-42	114	150	678	52884	678	57835235
4410	-14	-212	1898	2969	-3021	-42	114	150	679	52986	679	57835238
4414	276	-743	1384	4501	-2977	-41	121	149	680	53040	680	57835238
4613	435	-814	595	7319	-2664	-41	121	149	681	53142	681	57835277
4846	433	-668	-102	11281	-2112	-41	123	163	682	53196	682	57835278
4503	175	-444	-600	16251	-1320	-41	123	163	683	53298	683	57835279
3787	71	-452	-1002	22117	-494	-39	133	157	684	53352	684	57835281
2455	50	-92	-1354	28904	525	-39	133	157	685	53454	685	57835281
880	-108	538	-1533	32767	1776	-44	150	168	686	53508	686	57835287
-771	-214	986	-1648	32767	3148	-44	150	168	687	53610	687	57835287
-2313	-181	990	-1817	32767	4494	-43	179	175	688	53664	688	57835290
-3791	-100	567	-2012	32767	5894	-43	179	175	689	53766	689	57835290
-4695	-191	-350	-2336	32767	7197	-47	221	185	690	53820	690	57835291
-5285	-463	-1474	-2847	32767	8386	-47	221	185	691	53922	691	57835299
-5910	-690	-2409	-3491	32767	9256	-37	265	177	692	53976	692	57835300
-6688	-778	-2887	-4027	32767	9884	-37	265	177	693	54078	693	57835310
-6816	-1686	-5003	-3947	32767	9764	-34	306	158	694	54132	694	57835311
-8268	-1826	-4520	-4038	32767	8619	-34	306	158	695	54234	695	57835312
-8306	-1661	-5474	-4864	32767	7702	-41	345	119	696	54288	696	57835345
-9100	-3523	-4593	-4869	32767	6648	-41	345	119	697	54390	697	57835346
-9108	-130	-6467	-3206	32767	4987	-41	367	79	698	54444	698	57835349
-9941	1764	-4398	-5079	32767	3639	-41	367	79	699	54546	699	57835349
-7010	-426	-1906	-8934	32767	3367	-44	374	34	700	54600	700	57835352
-4922	-227	-2544	-10254	32767	1139	-44	374	34	701	54702	701	57835353
-4543	2884	-5020	-11340	32767	-1535	-44	364	8	702	54756	702	57835353
-4233	3425	-4756	-13677	32767	-1544	-44	364	8	703	54858	703	57835356
-3042	2605	-2325	-14695	32767	-556	-43	345	-21	704	54912	704	57835357
-1145	2596	-1241	-12645	31078	252	-43	345	-21	705	55014	705	57835363
-261	2012	55	-9902	26098	714	-51	335	-33	706	55068	706	57835396
989	3271	108	-7264	19636	318	-51	335	-33	707	55170	707	57835397
2003	4332	1117	-5102	11881	-478	-55	331	-47	708	55224	708	57835399
4522	4540	-744	-1798	3343	-1298	-55	331	-47	709	55326	709	57835400
4705	3668	-2246	1846	-4303	-2645	-57	329	-53	710	55380	710	57835402
2751	3128	-2785	5919	-10545	-4262	-57	329	-53	711	55482	711	57835403
493	3559	-4948	9400	-15668	-5489	-57	335	-41	712	55536	712	57835404
-973	2532	-4742	9870	-20030	-5689	-57	335	-41	713	55638	713	57835407
-1929	1611	-5103	9542	-24131	-5748	-43	341	-37	714	55692	714	57835407
-2924	714	-5762	9145	-27255	-5625	-43	341	-37	715	55794	715	57835442
-3693	-379	-5905	8771	-29120	-5371	-39	349	-19	716	55848	716	57835442
-3885	-1332	-5508	8495	-30170	-5352	-39	349	-19	717	55950	717	57835442
-3520	-1879	-4431	8008	-30941	-5363	-30	352	8	718	56004	718	57835445
-3302	-2093	-3166	7287	-31725	-5634	-30	352	8	719	56106	719	57835446
-2982	-2321	-1390	6485	-32684	-6068	-26	362	22	720	56160	720	57835449
-3048	-2298	695	6264	-32768	-6534	-26	362	22	721	56262	721	57835449
-3372	-2110	2925	6668	-32768	-7083	-21	371	51	722	56316	722	57835451
-4273	-2638	4902	7627	-32768	-7427	-21	371	51	723	56418	723	57835457
-5827	-3482	6416	8903	-32768	-7642	-13	353	85	724	56472	724	57835457
-7921	-2963	6700	9949	-32768	-7687	-13	353	85	725	56574	725	57835467
-10115	-1409	6500	10184	-32768	-7057	-3	339	125	726	56628	726	57835467
-14747	-455	4347	10022	-32768	-5896	-3	339	125	727	56730	727	57835470
-10528	-1393	2338	9676	-32768	-3652	-12	310	158	728	56784	728	57835480
-9812	-726	465	8821	-32768	-777	-12	310	158	729	56886	729	57835483
-8210	-527	-430	6649	-32768	1432	-17	271	191	730	56940	730	57835515
-5670	-330	-291	3627	-32768	3594	-17	271	191	731	57042	731	57835515
-3295	-315	373	673	-32768	4844	-16	226	206	732	57096	732	57835517
-628	-885	209	-1762	-32768	5611	-16	226	206	733	57198	733	57835519
2480	-2179	-530	-4146	-32768	5721	-17	185	189	734	57252	734	57835519
5950	-3468	-1196	-6589	-32768	5077	-17	185	189	735	57354	735	57835523
10164	-5042	-3875	-8638	-32768	3467	-11	145	175	736	57408	736	57835523
13230	-6345	-5037	-9254	-32768	1179	-11	145	175	737	57510	737	57835526
14015	-5918	-5209	-6716	-30673	-1190	-8	118	154	738	57564	738	57835526
11703	-4060	-4086	-2677	-17730	-2418	-8	118	154	739	57666	739	57835527
8702	-3006	-2317	504	-7086	-2520	-8	102	150	740	57720	740	57835563
6694	-2213	-956	1776	-389	-2469	-8	102	150	741	57822	741	57835563
5561	-1728	-96	1856	2883	-2671	-11	113	143	742	57876	742	57835566
5171	-1501	151	1701	4222	-2724	-11	113	143	743	57978	743	57835567
5335	-1447	-8	1643	5004	-2778	-10	110	146	744	58032	744	57835569
5778	-1454	-328	1607	6089	-2959	-10	110	146	745	58134	745	57835570
6310	-1518	-708	1589	7888	-3136	-19	113	147	746	58188	746	57835570
6315	-1556	-717	1692	10588	-3373	-19	113	147	747	58290	747	57835574
5521	-1441	-147	1984	13831	-3344	-20	122	156	748	58344	748	57835574
4456	-1361	630	2366	17187	-3266	-20	122	156	749	58446	749	57835577
3647	-1613	981	2699	20678	-3180	-21	127	163	750	58500	750	57835611
2995	-1646	950	3044	24711	-3097	-21	127	163	751	58602	751	57835611
1929	-1582	490	3344	29409	-3127	-29	139	169	752	58656	752	57835614
521	-1394	198	3604	32767	-3027	-29	139	169	753	58758	753	57835617
-926	-1238	-211	3674	32767	-2844	-29	169	175	754	58812	754	57835618
-2466	-935	-840	3356	32767	-2442	-29	169	175	755	58914	755	57835619
-3803	-958	-1768	2819	32767	-1665	-34	206	174	756	58968	756	57835619
-4755	-972	-3182	1921	32767	-792	-34	206	174	757	59070	757	57835624
-5326	-1422	-4514	160	32767	-442	-36	254	174	758	59124	758	57835625
-6480	-1950	-4943	-2292	32767	-910	-36	254	174	759	59226	759	57835628
-8370	-2312	-5583	-4862	32767	-1184	-31	305	157	760	59280	760	57835659
-9987	-2471	-5683	-8059	32767	-243	-31	305	157	761	59382	761	57835660
-10434	-2006	-5581	-11097	32767	1040	-24	350	116	762	59436	762	57835663
-9241	-3570	-6611	-12914	32767	1479	-24	350	116	763	59538	763	57835663
-10502	-1140	-5734	-12274	32767	-94	-21	373	77	764	59592	764	57835668
-10421	650	-3193	-11953	32767	-984	-21	373	77	765	59694	765	57835669
-7604	2077	-264	-12230	32767	-1563	-23	373	31	766	59748	766	57835670
-5476	2355	-845	-12411	32767	-1665	-23	373	31	767	59850	767	57835672
-3038	1440	-3728	-13654	32767	-1181	-22	358	0	768	59904	768	57835672
-1922	1375	-5246	-14605	32767	-898	-22	358	0	769	60006	769	57835706
-1731	2154	-5048	-15247	32767	-754	-19	355	-21	770	60060	770	57835707
-1379	2817	-3948	-15293	32210	-141	-19	355	-21	771	60162	771	57835709
-2437	4091	-1277	-14645	29642	778	-28	342	-40	772	60216	772	57835710
-436	3281	-122	-13305	24127	1848	-28	342	-40	773	60318	773	57835711
1097	2918	422	-10240	17638	1709	-39	333	-55	774	60372	774	57835714
1693	2927	612	-6250	10198	934	-39	333	-55	775	60474	775	57835714
1337	3221	697	-1818	1674	-83	-42	322	-62	776	60528	776	57835716
466	3396	239	2779	-7760	-1046	-42	322	-62	777	60630	777	57835722
1526	1587	-5657	8285	-16428	-1520	-38	322	-50	778	60684	778	57835726
-343	1799	-9029	15151	-19022	-2031	-38	322	-50	779	60786	779	57835756
-2092	-136	-7696	17382	-22026	-2457	-31	331	-43	780	60840	780	57835757
-3459	639	-8210	17186	-27874	-3661	-31	331	-43	781	60942	781	57835759
-4694	961	-7606	17148	-32048	-3597	-19	343	-25	782	60996	782	57835760
-5267	150	-6949	16807	-32768	-1995	-19	343	-25	783	61098	783	57835761
-5807	-1140	-6197	15828	-32768	-428	-13	351	-3	784	61152	784	57835764
-6635	-1756	-5006	14108	-32768	810	-13	351	-3	785	61254	785	57835764
-6365	-1804	-2490	11949	-32768	2110	-11	363	21	786	61308	786	57835766
-6209	-1892	22	10678	-32768	3560	-11	363	21	787	61410	787	57835769
-6723	-2017	2742	10881	-32768	4826	-18	358	68	788	61464	788	57835771
-7613	-2264	3429	12381	-32768	6177	-18	358	68	789	61566	789	57835804
-8310	-2606	2938	13135	-32768	7799	-19	347	107	790	61620	790	57835807
-11028	-1992	1902	11534	-32768	7879	-19	347	107	791	61722	791	57835808
-7561	-3218	-184	10352	-32768	8106	-30	326	144	792	61776	792	57835809
-7401	-2525	-1959	9459	-32768	7444	-30	326	144	793	61878	793	57835809
-7727	-2799	-3815	7436	-32768	5446	-40	294	166	794	61932	794	57835812
-5677	-2754	-4508	5081	-32768	3408	-40	294	166	795	62034	795	57835812
-2683	-1907	-4694	2486	-32768	2816	-43	261	185	796	62088	796	57835817
242	-1371	-4915	-1263	-32768	4741	-43	261	185	797	62190	797	57835817
3136	-1291	-5191	-5012	-32768	7387	-39	225	197	798	62244	798	57835820
4660	-2011	-6069	-8674	-32768	9815	-39	225	197	799	62346	799	57835853
6616	-1575	-5803	-11736	-32768	10946	-41	185	197	800	62400	800	57835853
9295	-564	-3961	-13353	-32768	9220	-41	185	197	801	62502	801	57835856
11433	897	-1585	-13564	-32768	5419	-21	153	179	802	62556	802	57835857
12789	160	-1358	-12415	-32768	1963	-21	153	179	803	62658	803	57835859
12307	-1523	-349	-12665	-29947	-344	-15	129	167	804	62712	804	57835860
10069	-2628	1695	-12227	-19892	-1305	-15	129	167	805	62814	805	57835861
7918	-3428	2991	-8708	-9442	-1269	-12	122	152	806	62868	806	57835866
6742	-3389	3688	-4467	6	-1062	-12	122	152	807	62970	807	57835867
6608	-2863	4211	-1397	8096	-804	-5	115	155	808	63024	808	57835869
6600	-2530	4267	593	14505	-1061	-5	115	155	809	63126	809	57835917
5753	-2368	4306	1743	18706	-1799	-12	120	162	810	63180	810	57835917
4582	-2300	4024	2593	20549	-2327	-12	120	162	811	63282	811	57835920
3662	-2623	3312	3159	20705	-2571	-15	141	167	812	63336	812	57835921
3617	-1466	3099	3365	20584	-3060	-15	141	167	813	63438	813	57835923
3891	-1286	2573	3727	20698	-2921	-21	151	175	814	63492	814	57835924
3933	-1615	2423	3393	21089	-3029	-21	151	175	815	63594	815	57835924
3835	-1738	1874	3373	22940	-3674	-17	167	177	816	63648	816	57835928
3321	-1784	1832	3600	26621	-4641	-17	167	177	817	63750	817	57835928
2443	-1762	1866	3962	31371	-5278	-27	193	179	818	63804	818	57835932
1484	-1678	1178	4504	32767	-5728	-27	193	179	819	63906	819	57835932
846	-1829	591	4867	32767	-6044	-30	218	184	820	63960	820	57835934
293	-1820	-371	4664	32767	-6772	-30	218	184	821	64062	821	57835939
-1078	-938	-1166	3550	32767	-8054	-34	254	176	822	64116	822	57835940
-2032	-601	-1742	1641	32767	-8175	-34	254	176	823	64218	823	57835949
-3893	167	-3027	-869	32767	-7313	-28	304	168	824	64272	824	57835949
-5635	-1125	-3163	-3657	32767	-5494	-28	304	168	825	64374	825	57835953
-6075	-1212	-3271	-6216	32767	-4032	-29	339	129	826	64428	826	57835987
-6590	-1769	-3293	-7872	32767	-3246	-29	339	129	827	64530	827	57835987
-6337	-2303	-3726	-8089	32767	-3003	-18	364	102	828	64584	828	57835990
-5784	-2739	-3796	-7550	32767	-3660	-18	364	102	829	64686	829	57835990
-5138	-2694	-4190	-7037	32767	-4956	-15	375	63	830	64740	830	57835993
-4803	-2343	-4354	-7043	32767	-6301	-15	375	63	831	64842	831	57835994
-5779	-1347	-4117	-7676	32767	-7010	-14	374	34	832	64896	832	57835996
-6573	-48	-3774	-9003	32528	-6308	-14	374	34	833	64998	833	57835998
-6236	704	-3392	-10550	28152	-3746	-8	368	6	834	65052	834	57835998
-5280	383	-2667	-11614	24226	-292	-8	368	6	835	65154	835	57836000
-3550	-570	-2094	-11704	20719	2605	-5	357	-7	836	65208	836	57836009
-1693	-996	-1283	-10736	17182	3842	-5	357	-7	837	65310	837	57836010
-382	-439	-859	-8533	12874	3904	-15	351	-19	838	65364	838	57836048
281	305	-912	-5358	7718	3437	-15	351	-19	839	65466	839	57836048
355	555	-1490	-1732	1785	3087	-19	351	-27	840	65520	840	57836051
-379	449	-2475	1903	-5086	2893	-19	351	-27	841	65622	841	57836052
-1849	112	-3213	5488	-13276	2692	-21	351	-25	842	65676	842	57836054
-3877	-397	-3448	9271	-23151	2442	-21	351	-25	843	65778	843	57836057
-5910	-930	-3698	13492	-32768	2476	-20	352	-2	844	65832	844	57836058
-7862	-1776	-4635	17881	-32768	3309	-20	352	-2	845	65934	845	57836062
-10588	-1849	-5394	21346	-32768	5074	-22	360	26	846	65989	846	57836062
-17626	749	-8449	22794	-32768	8590	-22	360	26	847	66091	847	57836063
-14793	-832	-7147	20428	-32768	15149	-27	351	83	848	66145	848	57836094
-10511	-1982	-5717	13879	-32768	20870	-27	351	83	849	66247	849	57836094
-7332	-3344	-4271	7146	-32768	24296	-47	333	131	850	66301	850	57836098
-4155	-3771	-4539	3176	-32768	25930	-47	333	131	851	66403	851	57836098
-848	-2917	-3719	-1224	-32768	24532	-55	297	171	852	66457	852	57836100
2864	-3674	-4005	-5616	-32768	20241	-55	297	171	853	66559	853	57836102
5360	-2572	-3740	-9949	-32768	12466	-62	242	188	854	66613	854	57836102
4763	-113	-1360	-13374	-32768	4249	-62	242	188	855	66715	855	57836106
3829	216	1119	-14225	-32768	-852	-48	212	194	856	66769	856	57836106
2690	-335	1513	-11903	-32768	-2998	-48	212	194	857	66871	857	57836108
2601	-914	1630	-8371	-25508	-2836	-42	182	198	858	66925	858	57836141
2985	-778	1687	-5127	-18575	-1929	-42	182	198	859	67027	859	57836141
3434	-649	1882	-2536	-12758	-915	-38	172	182	860	67081	860	57836144
3709	-389	2253	-1150	-8035	-251	-38	172	182	861	67183	861	57836147
3865	-191	2580	-755	-4261	43	-39	177	177	862	67237	862	57836150
3855	-198	2727	-876	-1079	-7	-39	177	177	863	67339	863	57836151
3612	-303	2776	-1057	1974	-391	-41	171	179	864	67393	864	57836151
3243	-377	2914	-1066	5321	-855	-41	171	179	865	67495	865	57836155
2869	-359	3216	-881	9089	-1251	-36	172	178	866	67549	866	57836156
2624	-405	3474	-579	13255	-1529	-36	172	178	867	67651	867	57836191
2608	-569	3681	-279	17758	-1610	-35	183	189	868	67705	868	57836192
2567	-754	3751	72	22554	-1670	-35	183	189	869	67807	869	57836216
2260	-973	3493	615	27487	-1938	-40	198	192	870	67861	870	57836217
1656	-1115	3275	866	32196	-2025	-40	198	192	871	67963	871	57836218
810	-1185	3322	526	32767	-2326	-44	228	182	872	68017	872	57836218
-221	-1222	2721	195	32767	-2540	-44	228	182	873	68119	873	57836218
-1252	-1415	1941	-504	32767	-2793	-42	266	182	874	68173	874	57836218
-2412	-1673	1687	-1445	32767	-3103	-42	266	182	875	68275	875	57836219
-3729	-1652	1609	-2276	32767	-3462	-43	291	167	876	68329	876	57836219
-4942	-1662	1492	-3281	32767	-3639	-43	291	167	877	68431	877	57836238
-5804	-1869	1428	-4344	32767	-3265	-34	326	148	878	68485	878	57836238
-6299	-2083	1455	-4934	32767	-2722	-34	326	148	879	68587	879	57836240
-6578	-2169	1098	-5161	32767	-2367	-30	346	120	880	68641	880	57836241
-6690	-2164	1075	-5373	32767	-1982	-30	346	120	881	68743	881	57836242
-6382	-2089	887	-5266	32767	-1579	-27	361	91	882	68797	882	57836245
-5681	-2196	607	-4725	31315	-1229	-27	361	91	883	68899	883	57836245
-4758	-1831	651	-3829	26085	-1299	-22	366	68	884	68953	884	57836248
-3978	-711	1256	-2658	20230	-1214	-22	366	68	885	69055	885	57836253
-3228	345	1253	-1144	13603	-513	-22	364	60	886	69109	886	57836253
-2562	1136	1331	497	6567	516	-22	364	60	887	69211	887	57836288
-2051	1410	1382	2318	-1174	1483	-27	367	61	888	69265	888	57836288
-2088	1360	881	4512	-9809	1924	-27	367	61	889	69367	889	57836291
-2949	1113	-163	6658	-18863	1997	-29	363	65	890	69421	890	57836292
-4511	506	-1064	8550	-27631	2052	-29	363	65	891	69523	891	57836292
-6017	-299	-1398	10347	-32768	1929	-32	356	90	892	69577	892	57836295
-7434	-1053	-1326	11389	-32768	1594	-32	356	90	893	69679	893	57836296
-8855	-810	-1607	11234	-32768	1488	-31	343	119	894	69733	894	57836299
-9038	-364	-1191	9730	-32768	2409	-31	343	119	895	69835	895	57836299
-8127	-633	-53	7413	-32768	3970	-30	318	152	896	69889	896	57836303
-6950	-1451	446	5191	-32768	5259	-30	318	152	897	69991	897	57836336
-5619	-1902	763	2691	-32768	6032	-43	285	177	898	70045	898	57836336
-3668	-1801	586	693	-32768	6225	-43	285	177	899	70147	899	57836339
-1596	-1599	556	-810	-32768	5546	-40	258	188	900	70201	900	57836339
-407	-1055	791	-2015	-32768	4398	-40	258	188	901	70303	901	57836341
103	-535	1091	-2622	-32531	3439	-39	223	185	902	70357	902	57836343
813	-575	1668	-2875	-25676	2832	-39	223	185	903	70459	903	57836347
1387	-598	1852	-2561	-18952	2081	-43	211	193	904	70513	904	57836347
1817	-655	2202	-1822	-12436	1248	-43	211	193	905	70615	905	57836347
2062	-494	2795	-1068	-6706	534	-41	195	191	906	70669	906	57836350
2036	-363	3365	-475	-2066	103	-41	195	191	907	70771	907	57836383
1972	-419	3861	-201	1862	82	-42	202	196	908	70825	908	57836383
1647	-487	4103	-22	5637	85	-42	202	196	909	70927	909	57836387
1433	-565	4054	140	9505	102	-45	209	189	910	70981	910	57836387
1300	-450	3651	377	14097	197	-45	209	189	911	71083	911	57836389
1243	-577	3147	634	19910	358	-46	216	190	912	71137	912	57836390
909	-815	2848	733	26775	303	-46	216	190	913	71239	913	57836391
199	-949	2623	796	32767	-92	-46	236	178	914	71293	914	57836398
-594	-872	1885	779	32767	-574	-46	236	178	915	71395	915	57836398
-1614	-1100	1532	-310	32767	-796	-39	271	175	916	71449	916	57836408
-2719	-1111	1018	-1596	32767	-1183	-39	271	175	917	71551	917	57836409
-4435	-885	798	-3039	32767	-1439	-48	312	154	918	71605	918	57836409
-6137	-813	1654	-5283	32767	-1157	-48	312	154	919	71707	919	57836445
-7672	-1364	2466	-6947	32767	-590	-38	346	124	920	71761	920	57836446
-8457	-1790	2290	-7554	32767	7	-38	346	124	921	71863	921	57836449
-7763	-1912	1878	-7971	32767	683	-33	365	85	922	71917	922	57836449
-6590	-1831	1276	-8203	32767	1307	-33	365	85	923	72019	923	57836451
-5903	-1892	1144	-8175	32767	1252	-35	375	53	924	72073	924	57836453
-4800	-1958	1024	-7710	32767	931	-35	375	53	925	72175	925	57836453
-3253	-1748	587	-6824	32767	250	-39	373	25	926	72229	926	57836457
-2661	-1317	-507	-5975	30430	-580	-39	373	25	927	72331	927	57836458
-2140	-560	-1096	-5857	27354	-1095	-30	362	8	928	72385	928	57836460
-1781	633	-631	-5939	23938	-923	-30	362	8	929	72487	929	57836472
-1160	1676	104	-5555	18977	-190	-39	359	-9	930	72541	930	57836474
-295	2525	455	-4423	12357	871	-39	359	-9	931	72643	931	57836505
628	3030	-61	-2529	5090	1609	-41	353	-15	932	72697	932	57836505
1129	2832	-479	-355	-2263	2046	-41	353	-15	933	72799	933	57836508
812	2084	-1167	2172	-10313	2013	-43	353	-17	934	72853	934	57836509
-77	1509	-2302	4840	-19365	1335	-43	353	-17	935	72955	935	57836509
-1820	1162	-3668	7475	-28925	324	-38	360	-6	936	73009	936	57836513
-4159	390	-4971	10130	-32768	-625	-38	360	-6	937	73111	937	57836513
-7602	-1201	-3746	12620	-32768	-1133	-36	366	18	938	73165	938	57836515
-12567	-1249	-3527	14982	-32768	-1631	-36	366	18	939	73267	939	57836518
-14403	-105	-5043	15179	-32768	-1285	-35	357	67	940	73321	940	57836518
-13543	-60	-4345	12907	-32768	1136	-35	357	67	941	73423	941	57836556
-12196	-1078	-3591	10197	-32768	4745	-35	341	127	942	73477	942	57836557
-10081	-2516	-2244	6764	-32768	8250	-35	341	127	943	73579	943	57836559
-6271	-3076	-2188	3147	-32768	9865	-40	306	166	944	73633	944	57836560
-2631	-2584	-2165	-209	-32768	8879	-40	306	166	945	73735	945	57836561
-446	-1849	-1859	-3301	-32768	6040	-41	267	187	946	73789	946	57836564
593	-1528	-1443	-5525	-32768	2602	-41	267	187	947	73891	947	57836564
1286	-1237	-449	-6669	-32768	534	-42	234	192	948	73945	948	57836568
1685	-815	405	-5864	-32768	-371	-42	234	192	949	74047	949	57836568
1836	-575	921	-3891	-26303	-559	-40	200	192	950	74101	950	57836570
2222	-457	1016	-2080	-19062	-303	-40	200	192	951	74203	951	57836603
2218	-261	1390	-1121	-13257	-207	-46	190	190	952	74257	952	57836603
2241	-234	1796	-789	-8864	-166	-46	190	190	953	74359	953	57836606
2536	-136	2375	-615	-5359	-8	-36	178	180	954	74413	954	57836607
3213	-104	2836	-443	-1876	213	-36	178	180	955	74515	955	57836609
3716	-201	3261	-446	2389	489	-42	186	186	956	74569	956	57836610
4164	-383	3947	-604	7884	871	-42	186	186	957	74671	957	57836612
4637	-470	4366	-453	14643	1467	-44	192	186	958	74725	958	57836615
4629	-581	4417	-102	22368	2084	-44	192	186	959	74827	959	57836616
3969	-910	4444	173	30382	2559	-36	206	190	960	74881	960	57836618
3432	-1161	3620	441	32767	2371	-36	206	190	961	74983	961	57836651
3068	-1328	2322	686	32767	1250	-45	239	187	962	75037	962	57836651
1906	-1530	1575	265	32767	-254	-45	239	187	963	75139	963	57836656
211	-1462	1618	-1020	32767	-1391	-41	281	171	964	75193	964	57836657
-1928	-1090	1907	-2505	32767	-1876	-41	281	171	965	75295	965	57836658
-4103	-1119	2748	-4020	32767	-1539	-39	317	149	966	75349	966	57836659
-6152	-1375	2915	-4921	32767	-987	-39	317	149	967	75451	967	57836659
-7798	-1537	2567	-5247	32767	-171	-37	351	117	968	75505	968	57836662
-8296	-1419	2086	-5290	32767	977	-37	351	117	969	75607	969	57836662
-7744	-1402	1390	-5349	32767	1973	-38	368	90	970	75661	970	57836664
-6652	-1358	605	-5660	32767	2821	-38	368	90	971	75763	971	57836697
-5308	-1268	-210	-6197	32767	3435	-31	375	61	972	75817	972	57836697
-4042	-1209	-888	-6888	32767	3969	-31	375	61	973	75919	973	57836700
-2995	-1067	-1507	-7334	31283	4516	-37	369	35	974	75973	974	57836701
-2279	-792	-1973	-7400	30011	4839	-37	369	35	975	76075	975	57836704
-1740	-440	-2177	-7053	28775	4900	-42	368	16	976	76129	976	57836704
-1302	43	-2438	-6337	26736	4548	-42	368	16	977	76231	977	57836706
-876	659	-2715	-5576	23843	3918	-53	357	-3	978	76285	978	57836713
-312	1144	-2590	-4939	20478	3205	-53	357	-3	979	76387	979	57836713
453	1355	-2515	-4231	16987	2639	-49	351	-13	980	76441	980	57836722
1013	1560	-2353	-3325	13277	1951	-49	351	-13	981	76543	981	57836723
1130	2030	-1770	-2082	8411	1056	-54	348	-20	982	76597	982	57836727
722	2685	-1140	-266	1654	171	-54	348	-20	983	76699	983	57836761
-21	2749	-1271	2118	-6746	-367	-51	345	-17	984	76753	984	57836762
-1114	2017	-2425	4800	-15784	-433	-51	345	-17	985	76855	985	57836765
-2530	950	-3712	7247	-24327	-492	-52	354	-8	986	76909	986	57836765
-4082	-23	-4253	9289	-31720	-568	-52	354	-8	987	77011	987	57836768
-6449	-708	-3615	10882	-32768	-920	-54	354	6	988	77065	988	57836769
-10402	-711	-3166	12179	-32768	-1445	-54	354	6	989	77167	989	57836769
-12574	154	-3480	12693	-32768	-933	-43	361	41	990	77221	990	57836773
-11984	13	-3363	11938	-32768	886	-43	361	41	991	77323	991	57836773
-10671	-739	-3359	10652	-32768	3015	-47	355	91	992	77377	992	57836775
-8949	-1461	-2673	7907	-32768	5043	-47	355	91	993	77479	993	57836809
-6635	-2015	-1791	4516	-32768	6058	-50	330	138	994	77533	994	57836812
-4309	-2030	-1438	1486	-32768	5342	-50	330	138	995	77635	995	57836813
-2554	-1816	-821	-1422	-32768	3331	-51	295	167	996	77689	996	57836813
-1612	-1334	58	-3890	-32768	1114	-51	295	167	997	77791	997	57836817
-1133	-896	806	-5283	-32768	-496	-52	264	180	998	77845	998	57836818
-582	-746	1344	-5533	-32768	-1353	-52	264	180	999	77947	999	57836818
4	-668	1653	-4735	-32768	-1659	-49	233	187	1000	78001	1000	57836820
515	-694	1629	-3363	-29062	-1861	-49	233	187	1001	78103	1001	57836820
1213	-519	1409	-1981	-24297	-1915	-41	211	197	1002	78157	1002	57836832
1540	-316	1542	-1085	-20116	-1918	-41	211	197	1003	78259	1003	57836832
1906	-227	1577	-651	-16629	-1809	-42	206	192	1004	78313	1004	57836834
2173	-1	1494	-485	-13520	-1640	-42	206	192	1005	78415	1005	57836867
2234	110	1539	-446	-10376	-1467	-46	196	194	1006	78469	1006	57836867
2118	185	1530	-425	-7094	-1410	-46	196	194	1007	78571	1007	57836871
1890	283	1774	-597	-3662	-1318	-41	191	183	1008	78625	1008	57836871
1613	380	2294	-809	-142	-1423	-41	191	183	1009	78727	1009	57836873
1476	341	3015	-929	3458	-1314	-45	187	191	1010	78781	1010	57836874
1679	268	3647	-951	7351	-1064	-45	187	191	1011	78883	1011	57836874
1965	113	4373	-938	11659	-687	-48	196	180	1012	78937	1012	57836880
2615	-297	4736	-859	16516	-190	-48	196	180	1013	79039	1013	57836880
3126	-778	4719	-686	22382	177	-42	208	184	1014	79093	1014	57836883
2763	-918	4531	-580	29022	311	-42	208	184	1015	79195	1015	57836915
1552	-1108	4718	-578	32767	387	-44	232	182	1016	79249	1016	57836916
391	-1334	4518	-223	32767	508	-44	232	182	1017	79351	1017	57836919
-15	-1597	4048	176	32767	518	-45	263	179	1018	79405	1018	57836919
-814	-1754	3125	313	32767	23	-45	263	179	1019	79507	1019	57836922
-1976	-1750	2494	-557	32767	-443	-45	301	155	1020	79561	1020	57836923
-3298	-1562	2183	-2057	32767	-488	-45	301	155	1021	79663	1021	57836923
-4627	-1214	1755	-3533	32767	-3	-45	337	127	1022	79717	1022	57836928
-5847	-841	1297	-4741	32767	639	-45	337	127	1023	79819	1023	57836928
-6610	-838	739	-5712	32767	1410	-44	360	100	1024	79873	1024	57836930
-6237	-826	343	-6806	32767	2453	-44	360	100	1025	79975	1025	57836963
-5012	-779	-36	-7806	32767	3014	-39	369	67	1026	80029	1026	57836963
-3591	-530	-849	-8359	32767	2869	-39	369	67	1027	80131	1027	57836966
-2611	-222	-1527	-8772	32767	2677	-45	375	29	1028	80185	1028	57836967
-1881	117	-1983	-9161	32767	2765	-45	375	29	1029	80287	1029	57836970
-1227	393	-2372	-9340	32767	2970	-44	364	2	1030	80341	1030	57836970
-745	807	-2554	-9212	32767	2984	-44	364	2	1031	80443	1031	57836971
-413	1430	-2732	-8838	32651	2709	-51	357	-19	1032	80497	1032	57836978
-59	2086	-2845	-8426	29050	2450	-51	357	-19	1033	80599	1033	57836978
426	2476	-3046	-8020	25167	2265	-54	340	-30	1034	80653	1034	57837013
1047	2565	-3161	-7533	21338	2232	-54	340	-30	1035	80755	1035	57837013
1651	2445	-3391	-6856	17859	2015	-53	325	-39	1036	80809	1036	57837015
2009	2170	-3472	-6027	14853	1480	-53	325	-39	1037	80911	1037	57837017
2066	1995	-3497	-5027	12155	743	-60	324	-50	1038	80965	1038	57837017
1730	1874	-3454	-3849	9335	-30	-60	324	-50	1039	81067	1039	57837020
1187	1816	-3559	-2545	5899	-722	-62	316	-56	1040	81121	1040	57837020
528	1766	-3777	-966	1729	-1178	-62	316	-56	1041	81223	1041	57837023
-54	1573	-4123	784	-3044	-1466	-71	313	-59	1042	81277	1042	57837025
-486	1247	-4538	2526	-8034	-1655	-71	313	-59	1043	81379	1043	57837025
-922	888	-5018	4140	-12695	-2036	-61	315	-55	1044	81433	1044	57837060
-1314	535	-5510	5458	-16618	-2462	-61	315	-55	1045	81535	1045	57837060
-1716	234	-5994	6475	-19639	-2819	-60	332	-46	1046	81589	1046	57837062
-2443	41	-6094	7229	-22148	-3317	-60	332	-46	1047	81691	1047	57837064
-3386	-86	-5850	7991	-24639	-3638	-58	336	-38	1048	81745	1048	57837066
-4485	-250	-5650	8759	-27085	-3554	-58	336	-38	1049	81847	1049	57837068
-5701	-384	-5540	9205	-29438	-3253	-52	344	-20	1050	81901	1050	57837068
-6472	-541	-5054	9197	-31934	-2658	-52	344	-20	1051	82003	1051	57837073
-6728	-677	-4278	9036	-32768	-2183	-45	359	-3	1052	82057	1052	57837073
-6679	-721	-3656	8774	-32768	-1687	-45	359	-3	1053	82159	1053	57837075
-6619	-918	-2651	8202	-32768	-1286	-41	361	31	1054	82213	1054	57837107
-6634	-1214	-1816	7748	-32768	-646	-41	361	31	1055	82315	1055	57837108
-6466	-1565	-1086	7331	-32768	84	-36	356	58	1056	82369	1056	57837111
-5902	-1710	-354	6732	-32768	699	-36	356	58	1057	82471	1057	57837111
-4786	-1736	149	6101	-32768	1164	-45	353	85	1058	82525	1058	57837114
-3467	-1794	780	5243	-32768	1238	-45	353	85	1059	82627	1059	57837115
-2594	-1618	1591	4167	-32768	973	-44	338	124	1060	82681	1060	57837115
-1919	-1429	2584	2987	-32768	197	-44	338	124	1061	82783	1061	57837120
-980	-1076	3184	1985	-32768	-767	-47	321	149	1062	82837	1062	57837121
171	-796	3253	1369	-32768	-1682	-47	321	149	1063	82939	1063	57837124
1112	-679	3015	1127	-32768	-2505	-42	298	168	1064	82993	1064	57837156
1613	-520	2818	1063	-32768	-3076	-42	298	168	1065	83095	1065	57837157
1309	-179	2989	1112	-32768	-3440	-45	273	183	1066	83149	1066	57837160
1165	68	2829	1126	-32768	-3547	-45	273	183	1067	83251	1067	57837160
1214	360	2439	1095	-32768	-3387	-45	249	193	1068	83305	1068	57837162
1554	661	2207	641	-32768	-3082	-45	249	193	1069	83407	1069	57837164
2110	847	2158	-379	-32768	-2597	-45	215	195	1070	83461	1070	57837164
2714	870	2267	-1553	-32768	-1984	-45	215	195	1071	83563	1071	57837169
3202	615	2391	-2396	-32768	-1048	-47	189	191	1072	83617	1072	57837169
3762	255	2761	-2872	-28133	81	-47	189	191	1073	83719	1073	57837198
4591	-211	3232	-3250	-21985	1234	-39	163	187	1074	83773	1074	57837202
5433	-883	3844	-3450	-14684	2159	-39	163	187	1075	83875	1075	57837202
5917	-1515	4350	-2972	-6747	2625	-42	158	178	1076	83929	1076	57837203
5813	-2055	4586	-1716	913	2593	-42	158	178	1077	84031	1077	57837203
5210	-2323	4638	-110	7297	2203	-40	158	178	1078	84085	1078	57837207
4403	-2245	4589	1278	11470	1389	-40	158	178	1079	84187	1079	57837207
3821	-2032	4385	2271	13195	356	-44	172	176	1080	84241	1080	57837207
3260	-1665	3971	3025	13097	-696	-44	172	176	1081	84343	1081	57837243
2777	-1236	3504	3566	11941	-1560	-40	176	188	1082	84397	1082	57837243
2421	-936	2921	3975	10424	-2068	-40	176	188	1083	84499	1083	57837246
1991	-839	2291	4176	9137	-2643	-44	182	188	1084	84553	1084	57837247
1346	-708	1925	4031	8491	-3334	-44	182	188	1085	84655	1085	57837249
519	-603	1915	3611	8800	-4157	-50	198	180	1086	84709	1086	57837250
-562	-578	2095	3115	10203	-4977	-50	198	180	1087	84811	1087	57837251
-1565	-492	2485	2638	12774	-5530	-55	207	179	1088	84865	1088	57837254
-2527	-578	2599	2282	16633	-5985	-55	207	179	1089	84967	1089	57837254
-3303	-585	2303	2679	22331	-6112	-53	217	193	1090	85021	1090	57837258
-3179	-627	1628	2680	28939	-5914	-53	217	193	1091	85123	1091	57837292
-3487	-254	1046	1690	32767	-5801	-58	238	180	1092	85177	1092	57837293
-3946	-389	39	679	32767	-5715	-58	238	180	1093	85279	1093	57837297
-4305	-628	-1625	-264	32767	-5667	-51	271	169	1094	85333	1094	57837299
-4602	-772	-3298	-1810	32767	-5731	-51	271	169	1095	85435	1095	57837302
-4966	-520	-4370	-4343	32767	-5886	-53	315	151	1096	85489	1096	57837302
-5486	-56	-4840	-7408	32767	-5771	-53	315	151	1097	85591	1097	57837303
-5825	80	-5364	-10548	32767	-5105	-46	346	116	1098	85645	1098	57837307
-5867	-68	-5490	-13676	32767	-3853	-46	346	116	1099	85747	1099	57837308
-5792	58	-4974	-16275	32767	-2550	-37	367	81	1100	85801	1100	57837308
-5342	146	-4333	-17594	32767	-1585	-37	367	81	1101	85903	1101	57837314
-5818	2712	-4040	-17919	32767	-1170	-35	375	35	1102	85957	1102	57837314
-4226	1373	-2445	-18332	32767	792	-35	375	35	1103	86059	1103	57837351
-2691	810	-1408	-16960	32767	1843	-34	364	6	1104	86113	1104	57837363
-1136	274	-1650	-14787	32767	1406	-34	364	6	1105	86215	1105	57837364
-307	-353	-2744	-12495	27114	318	-45	353	-13	1106	86269	1106	57837364
-862	-462	-3412	-10006	23095	-725	-45	353	-13	1107	86371	1107	57837364
-2067	-153	-3769	-7832	19595	-1650	-41	343	-33	1108	86425	1108	57837366
-3296	336	-3741	-6255	15817	-1914	-41	343	-33	1109	86527	1109	57837367
-3500	-7	-3171	-5042	11678	-1291	-50	338	-44	1110	86581	1110	57837367
-2811	-436	-2833	-3653	7406	-721	-50	338	-44	1111	86683	1111	57837367
-1951	-812	-2266	-1694	3648	-601	-48	334	-38	1112	86737	1112	57837368
-1380	-811	-1576	805	-156	-856	-48	334	-38	1113	86839	1113	57837398
-1592	-336	-993	3505	-4973	-1527	-46	332	-40	1114	86893	1114	57837398
-2075	-72	-959	6282	-11124	-1931	-46	332	-40	1115	86995	1115	57837401
-2770	-359	-1281	9163	-18148	-2091	-40	338	-38	1116	87049	1116	57837402
-3982	-714	-1953	12085	-25750	-2228	-40	338	-38	1117	87151	1117	57837404
-5506	-994	-2931	14860	-32768	-2090	-36	348	-24	1118	87205	1118	57837406
-7324	-1449	-3307	16991	-32768	-1544	-36	348	-24	1119	87307	1119	57837407
-10224	-1856	-3169	18173	-32768	-449	-30	356	-2	1120	87361	1120	57837413
-12571	-1875	-3062	18075	-32768	733	-30	356	-2	1121	87463	1121	57837413
-12923	-1894	-3820	16581	-32768	1948	-28	356	48	1122	87517	1122	57837416
-11612	-2178	-3998	13937	-32768	3235	-28	356	48	1123	87619	1123	57837450
-10514	-2528	-2908	11717	-32768	4691	-30	356	94	1124	87673	1124	57837451
-9167	-2576	-1760	9933	-32768	6119	-30	356	94	1125	87775	1125	57837455
-7171	-2764	-315	8316	-32768	6844	-44	332	128	1126	87829	1126	57837456
-5266	-2326	-33	7643	-32768	6183	-44	332	128	1127	87931	1127	57837457
-3804	-1970	47	6796	-32768	5014	-46	306	162	1128	87985	1128	57837458
-2458	-1685	145	5302	-32768	4164	-46	306	162	1129	88087	1129	57837458
-1493	-1294	229	3991	-32768	3279	-52	274	178	1130	88141	1130	57837461
-952	-837	-25	3014	-32768	2366	-52	274	178	1131	88243	1131	57837462
20	-369	-743	1961	-32768	1616	-48	232	198	1132	88297	1132	57837472
1465	110	-1638	641	-32768	684	-48	232	198	1133	88399	1133	57837477
2082	519	-1261	-790	-32768	-519	-54	206	194	1134	88453	1134	57837478
2462	732	-922	-1866	-32768	-1780	-54	206	194	1135	88555	1135	57837509
2802	979	-549	-2337	-30583	-2446	-53	181	189	1136	88609	1136	57837509
3057	1169	-127	-2205	-24625	-2508	-53	181	189	1137	88711	1137	57837512
3393	1323	268	-1736	-18651	-1983	-53	157	181	1138	88765	1138	57837513
3751	1357	639	-1181	-12672	-1193	-53	157	181	1139	88867	1139	57837515
4168	1235	1004	-778	-6772	-302	-55	153	167	1140	88921	1140	57837517
4574	1019	1428	-616	-1077	293	-55	153	167	1141	89023	1141	57837517
4825	764	2072	-680	4264	653	-54	156	172	1142	89077	1142	57837520
4816	411	2869	-819	9059	925	-54	156	172	1143	89179	1143	57837521
4587	-6	3422	-880	13398	987	-55	155	175	1144	89233	1144	57837522
4414	51	2846	-752	17561	1146	-55	155	175	1145	89335	1145	57837556
4003	-895	3239	-194	22450	1534	-57	171	181	1146	89389	1146	57837557
3169	-1164	3445	752	27146	1477	-57	171	181	1147	89491	1147	57837560
2699	-1294	3461	1086	31007	756	-60	194	182	1148	89545	1148	57837560
2201	-1347	3169	1098	32767	-474	-60	194	182	1149	89647	1149	57837562
1233	-1399	2878	768	32767	-1538	-56	214	182	1150	89701	1150	57837564
-26	-1412	2331	326	32767	-2260	-56	214	182	1151	89803	1151	57837564
-1258	-1481	1456	-117	32767	-2659	-57	257	171	1152	89857	1152	57837567
-2937	-1580	724	-769	32767	-2942	-57	257	171	1153	89959	1153	57837568
-4194	-1646	372	-1864	32767	-3104	-52	292	168	1154	90013	1154	57837570
-5379	-1482	-276	-3027	32767	-3382	-52	292	168	1155	90115	1155	57837604
-6371	-1197	-932	-4665	32767	-3400	-50	324	136	1156	90169	1156	57837604
-6920	-842	-985	-6579	32767	-2899	-50	324	136	1157	90271	1157	57837607
-6819	-547	-869	-7851	32767	-2054	-48	358	108	1158	90325	1158	57837608
-6452	-169	-1175	-8175	32767	-1435	-48	358	108	1159	90427	1159	57837611
-5229	-69	-1649	-8787	32767	-1207	-39	369	75	1160	90481	1160	57837612
-3963	77	-1906	-9813	32767	-1337	-39	369	75	1161	90583	1161	57837615
-3031	298	-2132	-10350	32767	-1502	-39	371	45	1162	90637	1162	57837617
-2394	410	-2559	-10332	32767	-1654	-39	371	45	1163	90739	1163	57837617
-1897	526	-2808	-10317	32767	-1849	-39	367	25	1164	90793	1164	57837629
-1407	569	-2756	-10418	32310	-2033	-39	367	25	1165	90895	1165	57837629
-1027	700	-2269	-10206	29398	-2418	-38	360	2	1166	90949	1166	57837631
-1149	1118	-1540	-9325	25241	-3004	-38	360	2	1167	91051	1167	57837664
-2882	1399	-205	-7550	19441	-3428	-33	353	-15	1168	91105	1168	57837665
-2531	1891	-1479	-4858	11013	-3734	-33	353	-15	1169	91207	1169	57837668
1030	3623	-5233	-2195	2615	-3145	-39	351	-27	1170	91261	1170	57837668
-144	2853	-2843	288	-3180	-1147	-39	351	-27	1171	91363	1171	57837670
-776	319	-1810	4981	-11285	601	-41	351	-21	1172	91417	1172	57837674
-1860	-592	-2934	10378	-21724	-99	-41	351	-21	1173	91519	1173	57837684
-3663	-780	-4416	14944	-31246	-1234	-33	359	-7	1174	91573	1174	57837688
-5558	-1366	-5342	18416	-32768	-1311	-33	359	-7	1175	91675	1175	57837688
-7925	-2388	-5035	20822	-32768	-376	-29	353	21	1176	91729	1176	57837688
-10793	-2364	-4977	22186	-32768	1150	-29	353	21	1177	91831	1177	57837713
-12204	-2515	-4296	21294	-32768	3165	-27	357	57	1178	91885	1178	57837713
-11559	-2020	-3496	18854	-32768	4798	-27	357	57	1179	91987	1179	57837716
-9372	-1795	-2445	15789	-32768	6618	-41	353	97	1180	92041	1180	57837716
-6597	-1396	-1487	13326	-32768	8872	-41	353	97	1181	92143	1181	57837719
-4243	-1821	-432	12044	-32768	11346	-42	326	136	1182	92197	1182	57837720
-2034	-2423	-105	11402	-32768	13028	-42	326	136	1183	92299	1183	57837720
170	-2076	-385	11066	-32768	13636	-56	302	162	1184	92353	1184	57837725
1962	-1118	-679	10290	-32768	13361	-56	302	162	1185	92455	1185	57837725
3781	-242	-958	8854	-32768	12339	-63	263	185	1186	92509	1186	57837760
4695	429	-782	6362	-32768	10619	-63	263	185	1187	92611	1187	57837761
5049	555	0	3182	-32768	8654	-72	230	190	1188	92665	1188	57837761
4721	747	1043	433	-32768	6746	-72	230	190	1189	92767	1189	57837764
3959	759	2054	-1484	-32768	5153	-74	202	180	1190	92821	1190	57837767
3520	703	2484	-2642	-27422	3915	-74	202	180	1191	92923	1191	57837768
3429	747	2606	-3302	-21765	2975	-75	181	181	1192	92977	1192	57837771
3545	756	2807	-3437	-15439	2340	-75	181	181	1193	93079	1193	57837772
4008	595	3099	-3219	-8525	1974	-70	170	174	1194	93133	1194	57837775
4670	494	3568	-2707	-1250	1815	-70	170	174	1195	93235	1195	57837776
5376	363	4191	-2192	6048	1671	-61	165	173	1196	93289	1196	57837811
5652	9	4771	-1690	12967	1422	-61	165	173	1197	93391	1197	57837812
5556	-516	4816	-1097	19163	1065	-69	175	175	1198	93445	1198	57837818
5375	-827	4623	-349	24749	495	-69	175	175	1199	93547	1199	57837839
5040	-855	4277	486	29657	-368	-73	197	181	1200	93601	1200	57837840
4193	-739	3832	1055	32767	-1395	-73	197	181	1201	93703	1201	57837843
2980	-667	3485	1121	32767	-2578	-71	223	179	1202	93757	1202	57837843
1711	-668	2869	819	32767	-3549	-71	223	179	1203	93859	1203	57837845
-11	-870	2482	328	32767	-4346	-74	252	170	1204	93913	1204	57837846
-1707	-1061	2102	-238	32767	-4860	-74	252	170	1205	94015	1205	57837847
-3385	-1058	1727	-850	32767	-5195	-69	285	161	1206	94069	1206	57837850
-4783	-787	1342	-1520	32767	-5244	-69	285	161	1207	94171	1207	57837850
-5908	-750	685	-2094	32767	-5075	-70	320	144	1208	94225	1208	57837854
-6346	-916	89	-2916	32767	-4559	-70	320	144	1209	94327	1209	57837854
-6017	-939	-205	-3882	32767	-3899	-60	348	114	1210	94381	1210	57837854
-5432	-751	-723	-4487	32767	-3475	-60	348	114	1211	94483	1211	57837858
-4737	-502	-1493	-5025	32767	-3217	-52	358	92	1212	94537	1212	57837858
-4157	-211	-2122	-5932	32767	-2925	-52	358	92	1213	94639	1213	57837894
-3765	56	-2517	-6811	32767	-2720	-52	364	64	1214	94693	1214	57837894
-3571	187	-3005	-7363	32767	-2694	-52	364	64	1215	94795	1215	57837896
-3285	344	-3168	-8010	32767	-2574	-56	370	36	1216	94849	1216	57837898
-2655	524	-3151	-8652	32767	-2629	-56	370	36	1217	94951	1217	57837898
-1878	694	-3049	-9029	32171	-2617	-54	370	8	1218	95005	1218	57837901
-1312	1044	-2509	-8975	28826	-2325	-54	370	8	1219	95107	1219	57837902
-1416	1461	-1421	-8312	24112	-1986	-52	360	-4	1220	95161	1220	57837904
-1502	1950	-720	-6880	17491	-1658	-52	360	-4	1221	95263	1221	57837906
1791	3082	-3488	-4866	9718	-1219	-52	350	-16	1222	95317	1222	57837907
1056	3226	-2759	-2972	3433	-144	-52	350	-16	1223	95419	1223	57837943
-134	1625	-1775	312	-4948	1140	-50	344	-14	1224	95473	1224	57837943
-901	587	-3900	5005	-16932	870	-50	344	-14	1225	95575	1225	57837946
-2666	325	-6373	9332	-28407	-51	-53	353	-9	1226	95629	1226	57837953
-4893	-338	-7597	12626	-32768	-260	-53	353	-9	1227	95731	1227	57837954
-8107	-1443	-6642	15115	-32768	233	-50	358	16	1228	95785	1228	57837954
-10858	-993	-6554	16682	-32768	1248	-50	358	16	1229	95887	1229	57837955
-11565	-875	-6066	15958	-32768	3496	-49	363	59	1230	95941	1230	57837955
-11172	-1101	-4898	13681	-32768	6376	-49	363	59	1231	96043	1231	57837955
-9530	-1798	-3406	10678	-32768	9161	-52	350	94	1232	96097	1232	57837956
-7115	-2067	-2290	7990	-32768	11453	-52	350	94	1233	96199	1233	57837992
-4702	-2699	-710	6217	-32768	12997	-53	323	135	1234	96253	1234	57837992
-1938	-2752	-103	5482	-32768	13536	-53	323	135	1235	96355	1235	57837995
539	-2164	230	5279	-32768	13297	-71	299	159	1236	96409	1236	57837996
2297	-1441	227	4820	-32768	12531	-71	299	159	1237	96511	1237	57837997
3559	-688	471	3719	-32768	11326	-84	270	172	1238	96565	1238	57837999
4520	-27	512	2311	-32768	9765	-84	270	172	1239	96667	1239	57837999
4287	446	1013	776	-32768	7998	-83	243	179	1240	96721	1240	57838003
4165	696	1378	-662	-32768	6476	-83	243	179	1241	96823	1241	57838003
4151	911	1815	-1728	-32768	5254	-82	208	184	1242	96877	1242	57838006
4045	1058	2084	-2369	-29546	4067	-82	208	184	1243	96979	1243	57838017
4441	1386	2391	-2864	-25232	3004	-86	184	182	1244	97033	1244	57838021
4992	1609	2707	-3346	-19964	2074	-86	184	182	1245	97135	1245	57838052
5338	1421	3258	-3857	-13433	1274	-83	171	181	1246	97189	1246	57838052
5542	981	3796	-4151	-5574	487	-83	171	181	1247	97291	1247	57838054
5805	453	4218	-3884	3035	-151	-71	169	173	1248	97345	1248	57838055
6042	-99	4547	-2904	11654	-538	-71	169	173	1249	97447	1249	57838056
6239	-538	4754	-1266	19736	-813	-76	180	170	1250	97501	1250	57838059
6336	-762	4697	483	26828	-1271	-76	180	170	1251	97603	1251	57838060
5879	-601	4509	1816	32523	-2098	-80	202	172	1252	97657	1252	57838062
4487	-259	4375	2377	32767	-3256	-80	202	172	1253	97759	1253	57838063
2811	-86	4434	2214	32767	-4458	-87	225	175	1254	97813	1254	57838064
1523	-108	4374	1889	32767	-5173	-87	225	175	1255	97915	1255	57838098
534	-279	3966	1725	32767	-5597	-81	255	171	1256	97969	1256	57838099
-778	-526	3310	1566	32767	-6101	-81	255	171	1257	98071	1257	57838109
-2101	-739	2544	1229	32767	-6409	-77	279	157	1258	98125	1258	57838110
-2939	-873	1785	828	32767	-6803	-77	279	157	1259	98227	1259	57838111
-3443	-918	1223	439	32767	-7181	-79	317	135	1260	98281	1260	57838111
-3945	-977	72	111	32767	-7584	-79	317	135	1261	98383	1261	57838112
-4616	-1049	-1091	-729	32767	-7894	-73	343	109	1262	98437	1262	57838112
-5144	-997	-1975	-2267	32767	-7789	-73	343	109	1263	98539	1263	57838112
-5254	-834	-2484	-4033	32767	-7194	-67	359	81	1264	98593	1264	57838114
-5111	-279	-2982	-5566	32767	-6224	-67	359	81	1265	98695	1265	57838146
-4654	175	-3112	-7228	32767	-5088	-54	370	50	1266	98749	1266	57838147
-4017	486	-2684	-9105	32767	-3841	-54	370	50	1267	98851	1267	57838150
-3816	1369	-2174	-10855	32767	-2646	-56	372	18	1268	98905	1268	57838150
-5739	3147	-1462	-13106	32767	-1122	-56	372	18	1269	99007	1269	57838153
-1391	1253	-2476	-15412	32767	2052	-62	354	-12	1270	99061	1270	57838154
2342	-76	-2324	-15298	32767	4394	-62	354	-12	1271	99163	1271	57838155
2479	762	-509	-13184	32767	4673	-61	339	-29	1272	99217	1272	57838159
2964	1322	74	-10736	28854	3508	-61	339	-29	1273	99319	1273	57838159
4746	2035	-1263	-7845	20459	1401	-72	328	-38	1274	99373	1274	57838163
5222	3680	-3105	-4241	12308	-427	-72	328	-38	1275	99475	1275	57838195
3534	4146	-3552	-411	3999	-939	-82	326	-38	1276	99529	1276	57838196
2391	3831	-5146	3652	-6939	-977	-82	326	-38	1277	99631	1277	57838199
1095	3108	-7607	7658	-18822	-1270	-74	328	-42	1278	99685	1278	57838199
-740	1664	-9557	11082	-28807	-1521	-74	328	-42	1279	99787	1279	57838201
-3293	264	-10699	13472	-32768	-1925	-68	338	-30	1280	99841	1280	57838203
-5732	-151	-11132	14038	-32768	-2379	-68	338	-30	1281	99943	1281	57838203
-6996	-312	-10398	12757	-32768	-2075	-61	351	-9	1282	99997	1282	57838208
-7384	-385	-8551	10405	-32768	-1052	-61	351	-9	1283	100099	1283	57838209
-7119	-415	-6445	7711	-32768	487	-56	356	32	1284	100153	1284	57838243
-6782	-778	-4352	5118	-32768	2300	-56	356	32	1285	100255	1285	57838243
-6268	-1250	-2427	2659	-32768	3451	-58	352	58	1286	100309	1286	57838243
-5610	-1846	-622	734	-32768	3901	-58	352	58	1287	100411	1287	57838246
-4262	-2202	615	1	-32768	4065	-65	351	95	1288	100465	1288	57838247
-2586	-2207	1762	540	-32768	4249	-65	351	95	1289	100567	1289	57838250
-1009	-2039	2672	1979	-32768	4564	-65	333	119	1290	100621	1290	57838250
379	-1563	3010	3269	-32768	4715	-65	333	119	1291	100723	1291	57838253
1430	-1088	3123	3963	-32768	4539	-67	311	145	1292	100777	1292	57838259
2014	-537	2991	4312	-32768	4111	-67	311	145	1293	100879	1293	57838260
1572	-15	2745	4272	-32768	3264	-72	290	164	1294	100933	1294	57838270
1232	342	2307	3735	-32768	2527	-72	290	164	1295	101035	1295	57838271
1105	671	1898	3032	-32768	1832	-78	266	178	1296	101089	1296	57838272
1341	900	1638	2292	-32768	1268	-78	266	178	1297	101191	1297	57838306
1822	1136	1509	1499	-30370	839	-75	241	177	1298	101245	1298	57838307
2403	1415	1638	710	-25401	596	-75	241	177	1299	101347	1299	57838310
2921	1595	1965	-9	-19868	503	-81	227	187	1300	101401	1300	57838310
3073	1617	2460	-659	-14148	418	-81	227	187	1301	101503	1301	57838312
3236	1738	3336	-1386	-8576	356	-78	216	180	1302	101557	1302	57838314
3478	1726	4121	-2099	-3243	262	-78	216	180	1303	101659	1303	57838314
3876	1457	4834	-2609	1773	296	-83	213	177	1304	101713	1304	57838318
4182	1073	5331	-2815	6318	526	-83	213	177	1305	101815	1305	57838318
4123	707	5676	-2616	10240	759	-71	219	187	1306	101869	1306	57838329
3839	397	5951	-2096	13364	831	-71	219	187	1307	101971	1307	57838329
3434	176	5969	-1401	15723	683	-81	225	183	1308	102025	1308	57838331
2807	52	5732	-781	17418	311	-81	225	183	1309	102127	1309	57838364
1834	-81	5534	-341	18620	-131	-72	234	178	1310	102181	1310	57838368
977	-290	5192	54	19680	-486	-72	234	178	1311	102283	1311	57838368
499	-461	4410	465	21266	-803	-69	257	181	1312	102337	1312	57838369
55	-464	3516	668	24092	-911	-69	257	181	1313	102439	1313	57838370
-1019	-414	3035	571	28036	-985	-77	273	169	1314	102493	1314	57838372
-1979	-533	2732	442	32233	-662	-77	273	169	1315	102595	1315	57838377
-2256	-644	2151	502	32767	-231	-74	296	154	1316	102649	1316	57838378
-2494	-792	1354	486	32767	61	-74	296	154	1317	102751	1317	57838378
-2738	-935	336	239	32767	192	-81	321	141	1318	102805	1318	57838381
-2641	-763	-983	43	32767	366	-81	321	141	1319	102907	1319	57838414
-2356	-578	-2421	-154	32767	738	-81	343	117	1320	102961	1320	57838421
-2296	-299	-3719	-617	32767	965	-81	343	117	1321	103063	1321	57838429
-2402	64	-4455	-1647	32767	1136	-78	360	74	1322	103117	1322	57838430
-2384	485	-4866	-2900	32767	1196	-78	360	74	1323	103219	1323	57838431
-1921	802	-5020	-4408	32767	1270	-77	369	29	1324	103273	1324	57838432
-1216	973	-4797	-6347	32767	1663	-77	369	29	1325	103375	1325	57838432
-861	1247	-4020	-7969	32767	2055	-75	355	-3	1326	103429	1326	57838433
-437	1307	-2961	-8685	32767	2350	-75	355	-3	1327	103531	1327	57838433
281	1456	-2281	-8518	32767	2303	-75	331	-35	1328	103585	1328	57838477
990	1823	-1585	-7879	32767	1793	-75	331	-35	1329	103687	1329	57838477
1460	1916	-466	-7090	32767	1359	-85	301	-43	1330	103741	1330	57838478
-3167	60	4539	-5735	31611	124	-85	301	-43	1331	103843	1331	57838480
10031	6392	-11133	-4159	15900	-3485	-89	285	-61	1332	103897	1332	57838481
5590	7786	-6800	-3440	14739	220	-89	285	-61	1333	103999	1333	57838484
5953	1497	-2939	-1816	9671	5863	-94	274	-68	1334	104053	1334	57838489
7304	2298	-7007	2192	-5548	2696	-94	274	-68	1335	104155	1335	57838489
5578	1911	-8779	5720	-18695	-2166	-95	283	-67	1336	104209	1336	57838490
2876	1313	-10952	8931	-27733	-4755	-95	283	-67	1337	104311	1337	57838491
-331	1182	-11558	10187	-32768	-6097	-91	299	-69	1338	104365	1338	57838492
-3079	1338	-10488	9159	-32768	-6818	-91	299	-69	1339	104467	1339	57838492
-4638	1224	-8812	7082	-32768	-7048	-82	310	-52	1340	104521	1340	57838497
-4940	867	-7276	5153	-32768	-6665	-82	310	-52	1341	104623	1341	57838499
-5319	141	-5760	3691	-32768	-5740	-64	332	-26	1342	104677	1342	57838500
-6030	-506	-4347	2614	-32768	-4276	-64	332	-26	1343	104779	1343	57838534
-6953	-969	-3077	1748	-32768	-2334	-63	349	9	1344	104833	1344	57838534
-7587	-1478	-1850	954	-32768	-202	-63	349	9	1345	104935	1345	57838539
-7632	-1681	-635	406	-32768	1603	-72	350	48	1346	104989	1346	57838540
-6653	-1925	337	136	-32768	3233	-72	350	48	1347	105091	1347	57838540
-4666	-2543	1678	-211	-32768	4495	-74	346	84	1348	105145	1348	57838541
-2237	-3000	2769	-242	-32768	4992	-74	346	84	1349	105247	1349	57838543
-249	-2874	3250	252	-32768	4766	-69	333	125	1350	105301	1350	57838544
901	-2384	3261	983	-32768	3762	-69	333	125	1351	105403	1351	57838548
1190	-1552	3071	1468	-32768	2375	-77	305	157	1352	105457	1352	57838549
974	-615	2662	1528	-32768	1217	-77	305	157	1353	105559	1353	57838582
615	85	2121	1119	-32768	479	-67	271	181	1354	105613	1354	57838582
223	469	1457	403	-32768	-110	-67	271	181	1355	105715	1355	57838584
648	536	378	-105	-32768	-549	-74	240	184	1356	105769	1356	57838585
1197	911	-627	-25	-32768	-657	-74	240	184	1357	105871	1357	57838586
1962	1314	-1076	151	-32768	-597	-76	216	184	1358	105925	1358	57838589
2582	1870	-935	120	-27871	-693	-76	216	184	1359	106027	1359	57838590
3051	2255	-250	-255	-20671	-617	-78	202	178	1360	106081	1360	57838593
3475	2273	577	-785	-13696	-403	-78	202	178	1361	106183	1361	57838593
4067	2181	1242	-1179	-7136	-165	-71	187	183	1362	106237	1362	57838594
4690	2036	1852	-1524	-868	-103	-71	187	183	1363	106339	1363	57838629
5201	1749	2528	-1895	5059	-194	-81	187	183	1364	106393	1364	57838629
5243	1312	3271	-2301	10530	-337	-81	187	183	1365	106495	1365	57838632
4682	740	4162	-2672	15395	-633	-78	194	176	1366	106549	1366	57838633
3889	271	5009	-2731	19412	-950	-78	194	176	1367	106651	1367	57838635
3139	-209	5401	-2295	22502	-1073	-78	212	174	1368	106705	1368	57838636
2485	-528	5479	-1509	24863	-1190	-78	212	174	1369	106807	1369	57838637
1742	-539	5390	-680	26655	-1267	-77	229	175	1370	106861	1370	57838644
1105	-493	5047	34	28157	-1323	-77	229	175	1371	106963	1371	57838644
503	-496	4349	671	29812	-1365	-71	249	173	1372	107017	1372	57838647
-129	-544	3507	1188	31855	-1262	-71	249	173	1373	107119	1373	57838680
-801	-663	2810	1565	32767	-1320	-76	274	172	1374	107173	1374	57838680
-1521	-713	2135	1861	32767	-1392	-76	274	172	1375	107275	1375	57838683
-2560	-641	1417	1958	32767	-1509	-74	304	152	1376	107329	1376	57838683
-3749	-509	453	1808	32767	-1788	-74	304	152	1377	107431	1377	57838686
-4532	-366	-338	1488	32767	-1800	-75	329	133	1378	107485	1378	57838687
-4728	-207	-1115	1047	32767	-1411	-75	329	133	1379	107587	1379	57838687
-4507	-211	-1732	390	32767	-616	-72	352	106	1380	107641	1380	57838690
-4355	-149	-2301	-334	32767	174	-72	352	106	1381	107743	1381	57838690
-4212	-30	-3004	-1046	32767	856	-78	368	76	1382	107797	1382	57838725
-3783	235	-3594	-1824	32767	1614	-78	368	76	1383	107899	1383	57838726
-3143	665	-3881	-2762	32767	2248	-73	361	33	1384	107953	1384	57838726
-2571	948	-3860	-3769	32767	2817	-73	361	33	1385	108055	1385	57838729
-1834	923	-3517	-4675	32767	3079	-76	356	-2	1386	108109	1386	57838730
-780	953	-3158	-5156	32767	2955	-76	356	-2	1387	108211	1387	57838733
222	1098	-2747	-4969	32767	2444	-81	335	-35	1388	108265	1388	57838733
1070	1513	-2039	-4454	32767	1573	-81	335	-35	1389	108367	1389	57838735
2019	2101	-1104	-3914	32767	1029	-78	318	-52	1390	108421	1390	57838741
2957	2609	-565	-3090	26172	715	-78	318	-52	1391	108523	1391	57838742
3834	2868	-666	-1879	18822	592	-88	304	-54	1392	108577	1392	57838752
4355	2953	-1520	-168	10259	489	-88	304	-54	1393	108679	1393	57838752
4286	3005	-3498	2077	-226	206	-86	296	-62	1394	108733	1394	57838756
2952	2495	-5674	4412	-12485	-202	-86	296	-62	1395	108835	1395	57838789
662	1704	-8119	6597	-25714	-974	-81	299	-61	1396	108889	1396	57838789
-2125	1002	-10057	8084	-32768	-1978	-81	299	-61	1397	108991	1397	57838795
-5341	544	-10693	8433	-32768	-2670	-79	321	-43	1398	109045	1398	57838795
-8390	687	-10120	7500	-32768	-2812	-79	321	-43	1399	109147	1399	57838797
-9249	449	-9334	5640	-32768	-2025	-72	340	-14	1400	109201	1400	57838799
-9276	314	-8176	3344	-32768	-782	-72	340	-14	1401	109303	1401	57838799
-8449	-537	-6131	488	-32768	516	-75	353	33	1402	109357	1402	57838803
-7685	-1257	-4054	-1930	-32768	1779	-75	353	33	1403	109459	1403	57838806
-7142	-1480	-2093	-3665	-32768	3040	-65	343	81	1404	109513	1404	57838806
-6575	-1817	-606	-4319	-32768	4215	-65	343	81	1405	109615	1405	57838811
-4925	-2084	491	-4263	-32768	5066	-73	319	127	1406	109669	1406	57838812
-2215	-2503	1189	-3885	-32768	5334	-73	319	127	1407	109771	1407	57838846
583	-2705	1195	-3080	-32768	5055	-71	297	157	1408	109825	1408	57838847
2605	-2153	873	-2096	-32768	4224	-71	297	157	1409	109927	1409	57838850
3794	-1226	677	-1501	-32768	3257	-70	268	182	1410	109981	1410	57838851
4174	-247	485	-1527	-32768	2146	-70	268	182	1411	110083	1411	57838853
4524	447	246	-2074	-32768	1064	-73	233	183	1412	110137	1412	57838854
4037	1162	110	-2839	-32768	176	-73	233	183	1413	110239	1413	57838855
3578	1486	221	-3770	-32768	-430	-71	205	185	1414	110293	1414	57838859
3237	1589	522	-4380	-32768	-662	-71	205	185	1415	110395	1415	57838860
3268	1382	786	-4376	-27131	-643	-68	184	182	1416	110449	1416	57838863
3899	1097	1074	-3865	-20153	-522	-68	184	182	1417	110551	1417	57838900
4542	870	1629	-2961	-11804	-652	-71	171	175	1418	110605	1418	57838901
4532	822	2325	-1922	-2682	-1129	-71	171	175	1419	110707	1419	57838902
4275	761	3118	-914	6047	-1327	-68	170	172	1420	110761	1420	57838902
3978	566	3542	161	13648	-1217	-68	170	172	1421	110863	1421	57838902
3878	161	3672	1175	20070	-1016	-69	179	177	1422	110917	1422	57838903
4016	-238	3683	1994	25649	-1033	-69	179	177	1423	111019	1423	57838903
3636	-390	3536	2633	30507	-1552	-71	201	177	1424	111073	1424	57838908
2690	-415	3891	3014	32767	-2165	-71	201	177	1425	111175	1425	57838908
1899	-515	4258	3215	32767	-2786	-75	223	179	1426	111229	1426	57838944
1028	-497	4298	3398	32767	-3362	-75	223	179	1427	111331	1427	57838944
201	-670	4096	3335	32767	-3817	-71	257	175	1428	111385	1428	57838947
-912	-1186	3409	3366	32767	-4196	-71	257	175	1429	111487	1429	57838948
-2227	-1202	2460	3674	32767	-4624	-80	286	154	1430	111541	1430	57838948
-3913	-961	1541	3746	32767	-5018	-80	286	154	1431	111643	1431	57838951
-5729	-608	985	3334	32767	-5112	-79	319	137	1432	111697	1432	57838952
-7196	-274	503	2914	32767	-4523	-79	319	137	1433	111799	1433	57838954
-7514	-106	-272	2504	32767	-3335	-72	348	106	1434	111853	1434	57838957
-6852	-100	-946	1735	32767	-1908	-72	348	106	1435	111955	1435	57838963
-5741	-148	-1640	691	32767	-1006	-75	361	75	1436	112009	1436	57838991
-4814	-52	-2237	-439	32767	-756	-75	361	75	1437	112111	1437	57838992
-3929	112	-2487	-1410	32767	-621	-68	368	36	1438	112165	1438	57838994
-2918	322	-2738	-2010	32767	-483	-68	368	36	1439	112267	1439	57838995
-1826	530	-2957	-2356	32767	-594	-69	361	7	1440	112321	1440	57838996
-937	735	-3164	-2698	32767	-867	-69	361	7	1441	112423	1441	57838999
-321	949	-3053	-3277	32767	-1175	-66	350	-16	1442	112477	1442	57839000
109	1179	-2598	-3929	32767	-1435	-66	350	-16	1443	112579	1443	57839002
-445	1463	-1185	-4341	32767	-1730	-69	333	-37	1444	112633	1444	57839007
-5183	1723	2752	-4965	26555	-2633	-69	333	-37	1445	112735	1445	57839007
8117	3980	-8624	-5507	15738	-3774	-74	316	-46	1446	112789	1446	57839042
2717	5106	-1999	-4740	19268	671	-74	316	-46	1447	112891	1447	57839042
3817	585	1381	-4401	16286	6040	-68	314	-54	1448	112945	1448	57839045
5644	1653	-1051	-2097	3689	4245	-68	314	-54	1449	113047	1449	57839048
4688	2324	-3934	1519	-9738	725	-78	308	-56	1450	113101	1450	57839049
2694	1698	-8025	5060	-22716	-802	-78	308	-56	1451	113203	1451	57839049
-206	682	-10391	6732	-32768	-1401	-73	313	-57	1452	113257	1452	57839050
-3185	500	-11574	6847	-32768	-1809	-73	313	-57	1453	113359	1453	57839053
-6132	271	-11494	5362	-32768	-1994	-73	335	-29	1454	113413	1454	57839054
-8774	610	-10853	3706	-32768	-1375	-73	335	-29	1455	113515	1455	57839056
-9599	430	-9909	1338	-32768	168	-65	345	17	1456	113569	1456	57839089
-9413	-29	-8112	-1819	-32768	2269	-65	345	17	1457	113671	1457	57839089
-8424	-781	-5833	-4305	-32768	4673	-68	348	56	1458	113725	1458	57839118
-7218	-1469	-3870	-4936	-32768	7185	-68	348	56	1459	113827	1459	57839118
-5862	-1731	-3515	-4301	-32768	9788	-77	337	103	1460	113881	1460	57839120
-3097	-2015	-3078	-4455	-32768	11980	-77	337	103	1461	113983	1461	57839121
-204	-2376	-1907	-5187	-32768	13173	-79	307	149	1462	114037	1462	57839122
2318	-2231	-1914	-5549	-32768	13773	-79	307	149	1463	114139	1463	57839125
4726	-2153	-2204	-6005	-32768	13956	-78	262	176	1464	114193	1464	57839126
8062	-2568	-2769	-6861	-32768	13073	-78	262	176	1465	114295	1465	57839128
9619	-1874	-2503	-8208	-32768	10360	-76	222	188	1466	114349	1466	57839129
9639	-1134	-1238	-10086	-32768	6655	-76	222	188	1467	114451	1467	57839129
8244	-389	585	-11243	-32768	2891	-69	189	187	1468	114505	1468	57839133
6161	90	2369	-11055	-29584	85	-69	189	187	1469	114607	1469	57839133
4848	639	3846	-9668	-20835	-1404	-59	171	179	1470	114661	1470	57839135
4775	960	5165	-7708	-11618	-1827	-59	171	179	1471	114763	1471	57839138
5128	673	6381	-5468	-1830	-1481	-60	162	178	1472	114817	1472	57839138
6209	-126	7384	-3229	8296	-808	-60	162	178	1473	114919	1473	57839174
7228	-1212	7679	-774	18640	-454	-57	169	185	1474	114973	1474	57839175
7320	-1977	7149	1848	28556	-381	-57	169	185	1475	115075	1475	57839176
6775	-2154	6097	4326	32767	-944	-60	186	180	1476	115129	1476	57839178
5784	-1907	4995	6423	32767	-1814	-60	186	180	1477	115231	1477	57839178
4363	-1345	4097	7833	32767	-2778	-72	230	174	1478	115285	1478	57839181
3211	-1144	3758	8345	32767	-3930	-72	230	174	1479	115387	1479	57839182
2197	-915	4134	8141	32767	-4795	-78	264	166	1480	115441	1480	57839185
441	-781	4341	7711	32767	-5536	-78	264	166	1481	115543	1481	57839186
-1724	-630	4312	7173	32767	-5760	-75	299	149	1482	115597	1482	57839188
-3784	-325	3559	6846	32767	-5427	-75	299	149	1483	115699	1483	57839222
-5415	-35	2373	6646	32767	-4519	-75	327	135	1484	115753	1484	57839228
-6570	70	1107	6269	32767	-3212	-75	327	135	1485	115855	1485	57839230
-6898	-15	12	5590	32767	-1824	-75	349	105	1486	115909	1486	57839231
-6454	-217	-790	4710	32767	-416	-75	349	105	1487	116011	1487	57839231
-5718	-299	-1404	3772	32767	970	-76	356	70	1488	116065	1488	57839231
-4850	-278	-1946	2943	32767	2218	-76	356	70	1489	116167	1489	57839232
-3837	-200	-2524	2248	32767	3189	-79	365	41	1490	116221	1490	57839233
-2741	56	-2908	1498	32767	3923	-79	365	41	1491	116323	1491	57839233
-1558	592	-2842	487	32767	4373	-77	355	23	1492	116377	1492	57839237
-228	1127	-2303	-815	32767	4905	-77	355	23	1493	116479	1493	57839269
1260	1490	-1535	-1987	32767	5108	-77	353	-7	1494	116533	1494	57839270
2952	1496	-887	-2730	31693	5125	-77	353	-7	1495	116635	1495	57839273
4387	1720	-987	-2875	27144	4840	-89	337	-21	1496	116689	1496	57839273
5210	2089	-1393	-2504	21786	4162	-89	337	-21	1497	116791	1497	57839277
5432	2315	-2173	-1972	14575	3259	-89	327	-33	1498	116845	1498	57839278
5195	2252	-3865	-1494	4726	2072	-89	327	-33	1499	116947	1499	57839278
4115	2052	-6531	-745	-7680	426	-95	321	-45	1500	117001	1500	57839282
2098	1631	-9446	102	-21507	-1690	-95	321	-45	1501	117103	1501	57839283
-1166	1303	-11298	463	-32768	-4364	-94	330	-22	1502	117157	1502	57839296
-4985	1595	-11677	47	-32768	-6704	-94	330	-22	1503	117259	1503	57839297
-8639	2318	-11759	-1218	-32768	-8120	-87	337	5	1504	117313	1504	57839297
-11285	2646	-10624	-2919	-32768	-7720	-87	337	5	1505	117415	1505	57839329
-11464	1852	-8266	-5095	-32768	-5675	-77	345	47	1506	117469	1506	57839329
-9676	496	-6069	-6676	-32768	-2992	-77	345	47	1507	117571	1507	57839332
-6957	-891	-4466	-7635	-32768	-242	-82	344	96	1508	117625	1508	57839333
-4505	-1803	-2196	-8043	-32768	1905	-82	344	96	1509	117727	1509	57839335
-2596	-2075	-290	-7965	-32768	3241	-81	323	135	1510	117781	1510	57839338
-153	-2432	1178	-7519	-32768	3790	-81	323	135	1511	117883	1511	57839338
2102	-2717	1992	-6591	-32768	3454	-72	294	154	1512	117937	1512	57839342
3519	-2388	2199	-5524	-32768	2441	-72	294	154	1513	118039	1513	57839343
4318	-1736	2370	-4728	-32768	1150	-73	273	175	1514	118093	1514	57839345
4800	-1156	2524	-4071	-29412	45	-73	273	175	1515	118195	1515	57839378
4784	-856	2609	-3471	-26334	-881	-71	253	185	1516	118249	1516	57839378
4686	-588	2589	-2885	-23867	-1874	-71	253	185	1517	118351	1517	57839381
4044	-104	2585	-2330	-21530	-2843	-65	245	183	1518	118405	1518	57839381
2466	853	2678	-1842	-19005	-3816	-65	245	183	1519	118507	1519	57839385
669	1848	3079	-1375	-16223	-3962	-63	225	185	1520	118561	1520	57839385
561	2467	3735	-924	-12587	-2987	-63	225	185	1521	118663	1521	57839386
2401	2179	4763	-942	-6604	-1183	-65	225	183	1522	118717	1522	57839390
3953	-85	7180	-1972	14608	-204	-68	220	178	1524	118742	1523	57839426
2829	-1266	7540	-1575	27075	-596	-68	220	178	1525	118844	1524	57839427
1485	-1815	6868	257	32767	-808	-70	252	178	1526	118898	1525	57839428
192	-1585	5485	2624	32767	-974	-70	252	178	1527	119000	1526	57839429
-1070	-1014	4260	4155	32767	-1039	-73	287	161	1528	119054	1527	57839430
-2287	-453	3373	4377	32767	-1052	-73	287	161	1529	119156	1528	57839433
-2928	-414	3229	3612	32767	-561	-71	321	137	1530	119210	1529	57839433
-3301	-895	3570	2788	32767	240	-71	321	137	1531	119312	1530	57839437
-3765	-1132	3475	2451	32767	780	-76	354	102	1532	119366	1531	57839441
-4357	-1155	3046	2417	32767	927	-76	354	102	1533	119468	1532	57839441
-4823	-876	2341	2181	32767	797	-67	361	65	1534	119522	1533	57839475
-4979	-441	1802	1548	32767	966	-67	361	65	1535	119624	1534	57839476
-4813	-107	1063	779	32767	1214	-76	364	34	1536	119678	1535	57839478
-4168	38	26	-46	32767	1541	-76	364	34	1537	119780	1536	57839479
-3189	99	-856	-1144	32767	2472	-77	351	-3	1538	119834	1537	57839479
-1880	184	-1605	-2232	32767	3750	-77	351	-3	1539	119936	1538	57839483
-378	506	-1856	-3005	32725	5175	-75	339	-21	1540	119990	1539	57839483
1142	1037	-1756	-3338	31121	6258	-75	339	-21	1541	120092	1540	57839487
2752	1375	-2039	-3193	29560	6588	-76	326	-34	1542	120146	1541	57839488
4255	1549	-2606	-2928	27841	6286	-76	326	-34	1543	120248	1542	57839489
5407	1948	-3118	-2677	25820	5223	-83	313	-51	1544	120302	1543	57839521
6167	2427	-3564	-2332	23251	3948	-83	313	-51	1545	120404	1544	57839522
6522	2825	-3809	-1914	20069	2689	-81	297	-57	1546	120458	1545	57839525
6520	2964	-3904	-1495	16347	1611	-81	297	-57	1547	120560	1546	57839525
6251	2688	-4039	-1039	12187	841	-90	288	-62	1548	120614	1547	57839528
5786	2396	-4027	-527	7566	-74	-90	288	-62	1549	120716	1548	57839529
5194	2141	-3935	203	2101	-808	-92	288	-64	1550	120770	1549	57839529
4692	1937	-4051	1242	-4673	-1465	-92	288	-64	1551	120872	1550	57839533
2584	855	-4622	3731	-21892	-3474	-82	278	-68	1553	120897	1551	57839539
556	158	-5748	5104	-30406	-4801	-86	296	-56	1554	120951	1552	57839571
-1909	-455	-6879	6027	-32768	-5849	-86	296	-56	1555	121053	1553	57839572
-4040	-550	-7285	6282	-32768	-6816	-78	318	-40	1556	121107	1554	57839575
-6672	-317	-7415	5942	-32768	-7591	-78	318	-40	1557	121209	1555	57839575
-9213	-214	-7136	5161	-32768	-7630	-80	338	-26	1558	121263	1556	57839578
-10600	-391	-6390	3807	-32768	-6697	-80	338	-26	1559	121365	1557	57839579
-10960	-514	-5230	2315	-32768	-4997	-73	355	15	1560	121419	1558	57839579
-10458	-906	-3540	769	-32768	-2888	-73	355	15	1561	121521	1559	57839583
-9008	-1311	-1449	-448	-32768	-676	-63	353	65	1562	121575	1560	57839583
-6712	-1613	-275	-638	-32768	1396	-63	353	65	1563	121677	1561	57839586
-4432	-1768	611	-721	-32768	3136	-67	337	117	1564	121731	1562	57839619
-2580	-1660	1275	-903	-32768	3919	-67	337	117	1565	121833	1563	57839619
-955	-1352	1464	-929	-32768	3904	-66	312	150	1566	121887	1564	57839623
611	-938	1282	-687	-32768	3699	-66	312	150	1567	121989	1565	57839627
2393	-485	816	-456	-32768	3385	-68	286	168	1568	122043	1566	57839628
4372	-241	201	-582	-32768	2759	-68	286	168	1569	122145	1567	57839629
5471	33	-234	-1108	-32768	1762	-66	252	188	1570	122199	1568	57839629
5795	494	-228	-2009	-32768	226	-66	252	188	1571	122301	1569	57839631
4919	507	-497	-2776	-32768	-1349	-65	217	193	1572	122355	1570	57839632
3732	1609	87	-2965	-32768	-2670	-65	217	193	1573	122457	1571	57839667
4631	2167	1317	-3420	-24670	-3042	-64	196	190	1574	122511	1572	57839667
4668	1760	2221	-3559	-15289	-2665	-64	196	190	1575	122613	1573	57839667
4076	1454	3405	-3586	-5562	-2359	-65	189	187	1576	122667	1574	57839671
3791	1255	4603	-3557	3646	-1961	-65	189	187	1577	122769	1575	57839671
3650	837	5108	-3265	11940	-1249	-66	190	180	1578	122823	1576	57839674
3604	22	5647	-3073	19085	-414	-66	190	180	1579	122925	1577	57839678
3470	-564	5525	-2606	24700	87	-61	205	181	1580	122979	1578	57839678
3402	-910	4995	-1759	29096	235	-61	205	181	1581	123081	1579	57839682
3353	-953	4365	-882	32454	-150	-56	224	184	1582	123135	1580	57839682
2834	-875	3851	-231	32767	-803	-56	224	184	1583	123237	1581	57839717
1597	-856	3695	118	32767	-1666	-60	258	182	1584	123291	1582	57839717
-153	-843	3815	245	32767	-2421	-60	258	182	1585	123393	1583	57839719
-1936	-944	3950	579	32767	-2719	-58	282	174	1586	123447	1584	57839720
-3250	-1086	3782	1191	32767	-2632	-58	282	174	1587	123549	1585	57839721
-4087	-1084	3358	1767	32767	-2169	-61	303	155	1588	123603	1586	57839724
-4846	-813	2529	2119	32767	-1696	-61	303	155	1589	123705	1587	57839724
-5499	-934	1453	1956	32767	-1028	-59	335	141	1590	123759	1588	57839727
-5587	-1233	316	1588	32767	-353	-59	335	141	1591	123861	1589	57839729
-5147	-1339	-741	1315	32767	104	-65	343	119	1592	123915	1590	57839730
-4724	-1212	-1650	1053	32767	331	-65	343	119	1593	124017	1591	57839758
-4522	-852	-2259	642	32767	317	-58	358	96	1594	124071	1592	57839761
-4347	-310	-2890	-50	32767	551	-58	358	96	1595	124173	1593	57839762
-4209	151	-3463	-1029	32767	871	-63	367	59	1596	124227	1594	57839763
-3950	510	-3752	-2248	32767	1454	-63	367	59	1597	124329	1595	57839764
-3668	792	-4061	-3509	32767	2152	-60	372	34	1598	124383	1596	57839767
-3167	945	-3964	-4871	32767	2874	-60	372	34	1599	124485	1597	57839767
-2409	895	-3582	-6026	32767	3360	-60	358	0	1600	124539	1598	57839776
-1400	797	-3097	-6663	32767	3417	-60	358	0	1601	124641	1599	57839777
-382	763	-2611	-6915	32767	2957	-65	339	-19	1602	124695	1600	57839777
554	778	-2050	-6925	32767	2218	-65	339	-19	1603	124797	1601	57839813
1221	1140	-1370	-6669	32767	1529	-68	326	-38	1604	124851	1602	57839813
1825	2004	-99	-5903	28328	1290	-68	326	-38	1605	124953	1603	57839818
2730	3013	1192	-4505	19715	1248	-73	307	-59	1606	125007	1604	57839818
4145	3747	379	-1791	8228	1344	-73	307	-59	1607	125109	1605	57839819
4870	4117	-2959	1870	-5164	1251	-77	301	-61	1608	125163	1606	57839820
3645	1922	-5225	4996	-19116	1015	-77	301	-61	1609	125265	1607	57839821
1938	405	-8503	7773	-32768	-455	-72	316	-56	1610	125319	1608	57839824
-1816	249	-10546	9471	-32768	-2860	-72	316	-56	1611	125421	1609	57839829
-6143	639	-11212	9666	-32768	-4323	-70	330	-36	1612	125475	1610	57839830
-8552	716	-10621	7952	-32768	-3898	-70	330	-36	1613	125577	1611	57839860
-10139	641	-9541	5121	-32768	-2584	-65	351	5	1614	125631	1612	57839861
-10188	19	-7580	1913	-32768	-870	-65	351	5	1615	125733	1613	57839864
-8839	-1021	-5037	-1117	-32768	1084	-62	358	46	1616	125787	1614	57839866
-6937	-1979	-2708	-3225	-32768	2710	-62	358	46	1617	125889	1615	57839866
-5087	-2380	-937	-4204	-32768	3945	-57	349	91	1618	125943	1616	57839868
-3520	-2343	310	-4392	-32768	4481	-57	349	91	1619	126045	1617	57839868
-2025	-2094	1157	-4310	-32768	4146	-65	333	133	1620	126099	1618	57839873
-531	-1784	1889	-4106	-32768	3374	-65	333	133	1621	126201	1619	57839873
961	-1467	1852	-3730	-32768	2434	-60	298	162	1622	126255	1620	57839908
2638	-1161	1361	-3682	-32768	1451	-60	298	162	1623	126357	1621	57839908
4219	-914	969	-3901	-32768	252	-55	267	189	1624	126411	1622	57839908
4643	-631	852	-4069	-32768	-1120	-55	267	189	1625	126513	1623	57839911
4623	-290	673	-4172	-32768	-2530	-58	236	192	1626	126567	1624	57839912
4241	-14	686	-4138	-32768	-3593	-58	236	192	1627	126669	1625	57839915
2878	280	951	-3933	-30626	-4412	-59	209	187	1628	126723	1626	57839915
1385	657	1726	-3427	-24690	-4839	-59	209	187	1629	126825	1627	57839918
1533	1443	2551	-2656	-18174	-4508	-55	193	189	1630	126879	1628	57839923
2541	1534	3808	-2235	-9717	-2973	-55	193	189	1631	126981	1629	57839923
3775	499	5241	-2061	1267	-786	-52	188	186	1632	127035	1630	57839958
4411	-463	6296	-1554	14574	965	-52	188	186	1633	127137	1631	57839967
3673	-871	6469	-821	28142	1871	-54	208	188	1634	127191	1632	57839978
2121	-854	5866	-187	32767	2090	-54	208	188	1635	127293	1633	57839978
842	-759	5226	58	32767	2155	-54	232	174	1636	127347	1634	57839979
476	-684	5036	163	32767	2536	-54	232	174	1637	127449	1635	57839979
36	-700	4705	629	32767	3062	-55	275	169	1638	127503	1636	57839979
-946	-750	4287	584	32767	3254	-55	275	169	1639	127605	1637	57839979
-2088	-889	4729	-217	32767	3486	-57	319	145	1640	127659	1638	57839979
-3326	-1056	5132	-857	32767	3712	-57	319	145	1641	127761	1639	57839980
-4191	-1374	5179	-1186	32767	4194	-54	344	116	1642	127815	1640	57840006
-4622	-1532	4496	-1202	32767	4860	-54	344	116	1643	127917	1641	57840028
-4795	-1428	3344	-1231	32767	5345	-58	360	82	1644	127971	1642	57840033
-4715	-1255	2195	-1402	32767	5771	-58	360	82	1645	128073	1643	57840033
-4389	-846	802	-1589	32767	6280	-65	373	45	1646	128127	1644	57840034
-3931	-286	-322	-2008	32767	6953	-65	373	45	1647	128229	1645	57840036
-3142	154	-1057	-2598	32767	7800	-63	361	15	1648	128283	1646	57840036
-1854	456	-1625	-3086	32767	8731	-63	361	15	1649	128385	1647	57840037
-225	631	-2050	-3250	32767	9770	-67	351	-3	1650	128439	1648	57840037
1536	750	-2403	-2929	30073	10533	-67	351	-3	1651	128541	1649	57840037
3245	1033	-2656	-2152	27338	10605	-84	340	-18	1652	128595	1650	57840053
4522	1604	-2581	-1279	24641	10048	-84	340	-18	1653	128697	1651	57840053
5535	2187	-2389	-777	21800	8917	-90	326	-36	1654	128751	1652	57840056
6624	2800	-2214	-754	18743	7480	-90	326	-36	1655	128853	1653	57840057
7563	3288	-2061	-713	14547	5955	-95	315	-47	1656	128907	1654	57840059
8569	3427	-2227	-594	7773	4173	-95	315	-47	1657	129009	1655	57840060
8879	3006	-3324	-120	-2282	1966	-96	306	-46	1658	129063	1656	57840060
7486	2083	-5350	1432	-15358	-1039	-96	306	-46	1659	129165	1657	57840065
4741	1559	-7498	3469	-29365	-4141	-91	313	-43	1660	129219	1658	57840065
840	1267	-9112	4830	-32768	-6464	-91	313	-43	1661	129321	1659	57840069
-3817	1377	-10083	4992	-32768	-8145	-86	326	-16	1662	129375	1660	57840101
-7347	1976	-10249	3477	-32768	-8923	-86	326	-16	1663	129477	1661	57840102
-9332	2007	-9128	881	-32768	-8178	-78	340	16	1664	129531	1662	57840105
-9969	1241	-7868	-1622	-32768	-6104	-78	340	16	1665	129633	1663	57840105
-9222	-262	-6331	-4224	-32768	-3234	-69	347	65	1666	129687	1664	57840107
-7164	-1549	-4321	-6774	-32768	-818	-69	347	65	1667	129789	1665	57840109
-4594	-2254	-2085	-8658	-32768	453	-73	331	109	1668	129843	1666	57840109
-2325	-2824	27	-9757	-32768	713	-73	331	109	1669	129945	1667	57840114
-322	-3143	1929	-10018	-32768	358	-70	318	140	1670	129999	1668	57840114
1530	-3105	3476	-9177	-32768	-352	-70	318	140	1671	130101	1669	57840149
3309	-3080	4677	-7680	-31189	-1127	-57	299	163	1672	130155	1670	57840149
4788	-2877	5208	-5818	-25537	-2372	-57	299	163	1673	130257	1671	57840151
6071	-2542	5517	-3790	-21254	-3871	-61	291	173	1674	130311	1672	57840153
6287	-1742	5762	-2020	-18371	-5548	-61	291	173	1675	130413	1673	57840157
5821	-1032	5904	-591	-16747	-7241	-53	275	177	1676	130467	1674	57840158
4146	-321	6048	912	-15479	-8419	-53	275	177	1677	130569	1675	57840158
1479	713	6334	2492	-13893	-8990	-56	260	184	1678	130623	1676	57840159
-317	1523	7658	2998	-11061	-8628	-56	260	184	1679	130725	1677	57840164
-1446	1784	9403	2260	-5216	-7362	-61	257	181	1680	130779	1678	57840164
-2247	657	10510	1073	4611	-5354	-61	257	181	1681	130881	1679	57840199
-3256	-583	9999	566	17232	-3025	-53	265	187	1682	130935	1680	57840199
-3694	-937	8506	826	29567	-952	-53	265	187	1683	131037	1681	57840201
-3030	-1098	7298	1033	32767	385	-65	291	169	1684	131091	1682	57840203
-1917	-1045	6782	1019	32767	1060	-65	291	169	1685	131193	1683	57840203
-867	-874	7072	896	32767	1192	-61	319	141	1686	131247	1684	57840206
-289	-714	7606	717	32767	842	-61	319	141	1687	131349	1685	57840207
-521	-486	7807	708	32767	325	-56	346	114	1688	131403	1686	57840209
-1610	-512	7542	1034	32767	-70	-56	346	114	1689	131505	1687	57840210
-2705	-422	6676	1825	32767	-124	-60	352	92	1690	131559	1688	57840211
-3698	-431	5150	2729	32767	-48	-60	352	92	1691	131661	1689	57840247
-5553	-31	1004	2529	32767	1308	-66	364	68	1693	131686	1690	57840249
-5636	-61	-680	1505	29878	3272	-59	365	35	1694	131740	1691	57840249
-4870	-40	-1704	174	27646	5730	-59	365	35	1695	131842	1692	57840251
-3295	-63	-2413	-1032	26068	7977	-66	362	20	1696	131896	1693	57840253
-1443	-236	-2920	-1895	24878	9801	-66	362	20	1697	131998	1694	57840253
643	-377	-3327	-2284	24058	10953	-70	360	2	1698	132052	1695	57840257
2817	-387	-3845	-2223	23516	10849	-70	360	2	1699	132154	1696	57840257
4693	-232	-4262	-1972	23169	9669	-83	347	-3	1700	132208	1697	57840292
5878	388	-4577	-1475	22751	7774	-83	347	-3	1701	132310	1698	57840292
6331	1253	-4324	-1002	21640	5711	-85	339	-19	1702	132364	1699	57840297
6331	2252	-3843	-717	18956	3889	-85	339	-19	1703	132466	1700	57840298
6384	3007	-3671	-581	13845	2759	-85	325	-25	1704	132520	1701	57840298
6751	2712	-4102	-530	5852	2162	-85	325	-25	1705	132622	1702	57840299
6622	1840	-5135	14	-4646	1179	-90	320	-34	1706	132676	1703	57840301
5558	641	-6926	1494	-16432	-337	-90	320	-34	1707	132778	1704	57840303
2988	-18	-8837	2847	-27909	-2499	-86	328	-28	1708	132832	1705	57840303
-900	78	-9941	3305	-32768	-4990	-86	328	-28	1709	132934	1706	57840304
-4617	694	-10281	2811	-32768	-6845	-84	340	-2	1710	132988	1707	57840339
-6478	864	-9661	1499	-32768	-7620	-84	340	-2	1711	133090	1708	57840340
-8609	1072	-8705	-302	-32768	-7142	-78	352	26	1712	133144	1709	57840343
-9248	631	-6913	-2734	-32768	-5794	-78	352	26	1713	133246	1710	57840343
-8442	-418	-4620	-4905	-32768	-3848	-69	357	67	1714	133300	1711	57840347
-6529	-1464	-2332	-6225	-32768	-1772	-69	357	67	1715	133402	1712	57840348
-4485	-1885	-17	-6604	-32768	-210	-75	343	107	1716	133456	1713	57840349
-2532	-1884	2082	-6106	-32768	745	-75	343	107	1717	133558	1714	57840350
-739	-1590	3356	-5066	-32768	1424	-65	323	131	1718	133612	1715	57840351
526	-1143	3974	-4028	-32768	1954	-65	323	131	1719	133714	1716	57840396
1753	-820	4448	-3523	-32768	2096	-61	301	161	1720	133768	1717	57840397
3569	-823	4596	-3057	-32768	1854	-61	301	161	1721	133870	1718	57840399
4618	-547	4448	-2469	-32768	1255	-63	281	177	1722	133924	1719	57840400
5139	-202	4461	-2356	-32768	440	-63	281	177	1723	134026	1720	57840401
5089	103	4484	-2372	-32768	-444	-71	259	179	1724	134080	1721	57840404
4585	452	4299	-2208	-32768	-1157	-71	259	179	1725	134182	1722	57840405
4279	506	4326	-2051	-31726	-1641	-64	232	188	1726	134236	1723	57840409
4351	439	4636	-1783	-25090	-2145	-64	232	188	1727	134338	1724	57840409
3791	716	5399	-1514	-16673	-2749	-65	221	183	1728	134392	1725	57840410
2611	821	6710	-1423	-7156	-3085	-65	221	183	1729	134494	1726	57840412
1655	528	7657	-1166	2734	-2669	-66	210	184	1730	134548	1727	57840412
842	132	8012	-420	12486	-1741	-66	210	184	1731	134650	1728	57840421
1137	-309	7991	664	21285	-525	-61	215	183	1732	134704	1729	57840426
2161	-583	7254	1926	28916	555	-61	215	183	1733	134806	1730	57840455
2687	-482	6243	2947	32767	854	-64	244	178	1734	134860	1731	57840456
2768	-434	5544	3420	32767	788	-64	244	178	1735	134962	1732	57840458
2572	-447	4892	3639	32767	495	-72	272	170	1736	135016	1733	57840459
1971	-576	4395	3699	32767	204	-72	272	170	1737	135118	1734	57840459
851	-670	3708	3911	32767	-120	-73	305	149	1738	135172	1735	57840463
-477	-802	2973	4219	32767	-376	-73	305	149	1739	135274	1736	57840463
-2006	-924	1985	4484	32767	-466	-73	325	133	1740	135328	1737	57840466
-3671	-1040	674	4751	32767	-406	-73	325	133	1741	135430	1738	57840467
-4991	-1117	-931	5165	32767	-5	-79	347	107	1742	135484	1739	57840469
-5870	-758	-2600	5521	32767	534	-79	347	107	1743	135586	1740	57840502
-6192	-295	-3778	5264	32767	1384	-78	358	78	1744	135640	1741	57840502
-5683	77	-4655	4431	32767	2575	-78	358	78	1745	135742	1742	57840507
-4607	364	-5465	3181	32767	3794	-73	361	37	1746	135796	1743	57840510
-3247	567	-5632	1457	32767	4818	-73	361	37	1747	135898	1744	57840513
-1775	798	-5128	-312	32767	5576	-78	352	10	1748	135952	1745	57840513
-203	1051	-4510	-1678	32767	5884	-78	352	10	1749	136054	1746	57840514
1278	1256	-4072	-2553	32767	5610	-87	345	-15	1750	136108	1747	57840514
2329	1367	-3849	-3094	32767	4799	-87	345	-15	1751	136210	1748	57840516
2937	1583	-3623	-3583	32767	3656	-90	328	-34	1752	136264	1749	57840547
3462	1798	-3143	-4103	31525	2550	-90	328	-34	1753	136366	1750	57840548
4014	1993	-2199	-4635	28058	1763	-90	310	-44	1754	136420	1751	57840550
4580	2372	-1277	-4891	23808	1185	-90	310	-44	1755	136522	1752	57840552
5091	2758	-447	-4583	18174	708	-94	304	-54	1756	136576	1753	57840557
5812	2858	242	-3908	9915	262	-94	304	-54	1757	136678	1754	57840558
6480	2420	119	-2809	-1328	-118	-101	295	-57	1758	136732	1755	57840559
6059	1153	-1415	-1173	-14300	-1330	-101	295	-57	1759	136834	1756	57840560
3952	14	-3765	981	-27099	-3595	-98	302	-50	1760	136888	1757	57840561
