Accl X	Accl Y	Accl Z	Gyro X	Gyro Y	Gyro Z	Mag X	Mag Y	Mag Z	RPkt#	Rtime	LPkt#	Ltime
510	230	3773	-19	-38	-41	-86	124	200	0	0	0	74841842
522	216	3733	-16	-38	100	-89	123	203	1	56	1	74841842
517	239	3750	-16	-36	10	-89	123	203	2	159	2	74841852
524	228	3764	-16	-40	10	-86	124	202	3	215	3	74841852
522	220	3759	-14	-39	-15	-86	124	202	4	318	4	74841866
494	229	3751	-14	-36	56	-85	119	209	5	374	5	74841867
525	218	3780	-13	-37	38	-85	119	209	6	477	6	74841869
522	233	3753	-16	-40	-36	-87	117	199	7	533	7	74841876
520	229	3721	-14	-39	46	-87	117	199	8	636	8	74841877
512	222	3756	-16	-39	3	-87	117	205	9	692	9	74841891
520	219	3754	-18	-39	47	-87	117	205	10	795	10	74841892
506	206	3751	-19	-39	-13	-88	124	198	11	851	11	74841894
516	217	3741	-13	-38	-4	-88	124	198	12	954	12	74841900
531	236	3759	-12	-38	-14	-89	119	205	13	1010	13	74841901
520	225	3748	-17	-39	6	-89	119	205	14	1113	14	74841916
520	230	3737	-20	-36	12	-86	122	204	15	1169	15	74841917
520	237	3764	-15	-35	-20	-86	122	204	16	1272	16	74841919
515	234	3739	-14	-36	-33	-87	127	199	17	1328	17	74841925
513	229	3736	-14	-37	97	-87	127	199	18	1431	18	74841926
507	227	3735	-19	-38	55	-89	123	205	19	1487	19	74841943
518	233	3755	-14	-38	75	-89	123	205	20	1590	20	74841944
524	239	3746	-16	-37	26	-85	127	207	21	1646	21	74841945
521	223	3727	-14	-40	29	-85	127	207	22	1749	22	74841946
509	225	3715	-11	-39	62	-87	123	205	23	1805	23	74841947
498	227	3736	-16	-35	-3	-87	123	205	24	1908	24	74841967
505	206	3757	-14	-36	-15	-90	124	208	25	1964	25	74841967
522	237	3749	-15	-36	65	-90	124	208	26	2067	26	74841970
529	227	3764	-15	-40	3	-85	125	203	27	2123	27	74841970
530	231	3760	-16	-38	67	-85	125	203	28	2226	28	74841971
510	213	3745	-15	-38	5	-87	125	197	29	2282	29	74841995
516	222	3746	-17	-39	54	-87	125	197	30	2385	30	74841995
516	227	3737	-16	-34	51	-84	120	210	31	2441	31	74841997
514	225	3732	-14	-34	-7	-84	120	210	32	2544	32	74841998
512	243	3736	-16	-38	6	-90	122	200	33	2600	33	74842000
518	230	3748	-16	-36	48	-90	122	200	34	2703	34	74842018
515	241	3761	-17	-40	8	-91	125	201	35	2759	35	74842018
522	214	3742	-16	-38	60	-91	125	201	36	2862	36	74842021
506	226	3729	-16	-38	11	-87	123	201	37	2918	37	74842022
495	234	3737	-17	-39	49	-87	123	201	38	3022	38	74842024
505	218	3729	-16	-36	8	-88	122	202	39	3077	39	74842043
514	218	3747	-11	-39	4	-88	122	202	40	3181	40	74842043
491	224	3770	-14	-36	36	-89	119	207	41	3236	41	74842046
515	215	3755	-12	-36	19	-89	119	207	42	3339	42	74842047
526	201	3775	-14	-38	46	-86	118	206	43	3395	43	74842049
514	231	3765	-14	-39	42	-86	118	206	44	3498	44	74842068
506	211	3759	-14	-43	68	-90	126	194	45	3554	45	74842068
520	225	3762	-13	-43	5	-90	126	194	46	3657	46	74842072
513	208	3758	-16	-38	12	-90	126	206	47	3713	47	74842072
517	214	3743	-11	-38	42	-90	126	206	48	3816	48	74842074
509	221	3739	-18	-35	17	-85	123	199	49	3872	49	74842093
518	226	3752	-16	-38	-8	-85	123	199	50	3975	50	74842093
506	222	3744	-15	-38	65	-86	124	200	51	4031	51	74842097
513	219	3746	-18	-37	21	-86	124	200	52	4134	52	74842097
513	224	3760	-13	-36	27	-86	124	198	53	4190	53	74842099
507	213	3719	-17	-39	9	-86	124	198	54	4293	54	74842118
520	227	3733	-16	-37	-22	-91	125	201	55	4349	55	74842118
520	230	3753	-14	-36	19	-91	125	201	56	4452	56	74842122
527	224	3749	-15	-38	7	-83	117	199	57	4508	57	74842122
512	221	3737	-10	-39	20	-83	117	199	58	4611	58	74842125
488	220	3741	-14	-38	55	-91	121	199	59	4667	59	74842126
518	228	3758	-15	-40	69	-91	121	199	60	4770	60	74842127
498	233	3761	-17	-39	43	-90	126	206	61	4826	61	74842144
515	233	3760	-14	-38	42	-90	126	206	62	4929	62	74842144
516	216	3727	-17	-37	0	-90	124	200	63	4985	63	74842151
497	215	3763	-17	-37	19	-90	124	200	64	5088	64	74842152
514	214	3752	-21	-37	7	-88	128	202	65	5144	65	74842166
523	235	3717	-18	-39	25	-88	128	202	66	5247	66	74842168
513	233	3757	-13	-38	24	-87	125	205	67	5303	67	74842168
511	233	3735	-14	-38	28	-87	125	205	68	5406	68	74842176
507	229	3755	-16	-37	-13	-87	125	201	69	5462	69	74842177
526	223	3753	-15	-38	12	-87	125	201	70	5565	70	74842179
521	214	3766	-9	-37	20	-85	115	201	71	5621	71	74842191
507	230	3738	-13	-42	4	-85	115	201	72	5724	72	74842192
515	232	3743	-16	-38	60	-86	126	198	73	5780	73	74842200
514	226	3771	-12	-36	9	-86	126	198	74	5883	74	74842201
517	230	3753	-15	-37	44	-82	124	202	75	5939	75	74842203
519	227	3747	-14	-36	53	-82	124	202	76	6042	76	74842217
521	225	3766	-16	-39	17	-95	121	205	77	6098	77	74842218
518	222	3736	-14	-39	35	-95	121	205	78	6201	78	74842225
510	234	3726	-14	-39	-15	-89	119	201	79	6257	79	74842226
511	230	3732	-16	-38	-26	-89	119	201	80	6360	80	74842228
514	236	3771	-13	-39	10	-86	116	200	81	6416	81	74842242
512	219	3768	-15	-38	15	-86	116	200	82	6519	82	74842244
500	220	3762	-13	-39	79	-88	120	200	83	6575	83	74842249
536	231	3758	-13	-38	8	-88	120	200	84	6678	84	74842250
519	230	3754	-12	-36	7	-91	119	201	85	6734	85	74842251
526	231	3756	-13	-37	29	-91	119	201	86	6837	86	74842266
531	249	3746	-16	-40	11	-88	122	210	87	6893	87	74842267
517	232	3742	-16	-36	35	-88	122	210	88	6996	88	74842272
511	232	3753	-17	-38	33	-94	122	202	89	7052	89	74842272
515	221	3751	-15	-40	28	-94	122	202	90	7155	90	74842291
511	228	3754	-17	-42	68	-92	118	202	91	7211	91	74842292
519	226	3764	-15	-40	64	-92	118	202	92	7314	92	74842292
531	210	3747	-15	-38	52	-85	129	205	93	7370	93	74842296
507	211	3758	-15	-37	7	-85	129	205	94	7473	94	74842297
513	214	3742	-13	-37	47	-86	122	204	95	7529	95	74842316
520	244	3723	-16	-39	-10	-86	122	204	96	7632	96	74842317
506	224	3745	-13	-40	7	-85	121	211	97	7688	97	74842319
510	225	3740	-12	-38	89	-85	121	211	98	7791	98	74842320
509	244	3750	-13	-37	-2	-87	119	207	99	7847	99	74842320
518	217	3764	-15	-37	20	-87	119	207	100	7950	100	74842343
513	231	3747	-17	-39	37	-83	123	209	101	8006	101	74842344
519	230	3755	-14	-38	-47	-83	123	209	102	8109	102	74842344
516	230	3761	-14	-39	23	-91	125	203	103	8165	103	74842345
512	222	3746	-14	-38	5	-91	125	203	104	8268	104	74842346
526	237	3742	-17	-39	-32	-94	124	202	105	8324	105	74842394
521	231	3737	-11	-40	36	-94	124	202	106	8427	106	74842394
508	224	3758	-14	-37	1	-85	123	203	107	8483	107	74842396
509	233	3762	-12	-36	77	-85	123	203	108	8586	108	74842398
514	218	3733	-13	-38	75	-90	124	202	109	8642	109	74842398
520	222	3741	-14	-38	27	-90	124	202	110	8745	110	74842401
525	232	3743	-13	-38	20	-91	121	201	111	8801	111	74842402
519	225	3760	-15	-40	17	-91	121	201	112	8904	112	74842404
507	210	3764	-15	-37	26	-96	124	202	113	8960	113	74842418
521	215	3743	-17	-39	28	-96	124	202	114	9063	114	74842419
509	230	3782	-15	-40	6	-89	125	203	115	9119	115	74842422
513	219	3755	-15	-39	22	-89	125	203	116	9222	116	74842422
517	216	3721	-11	-35	24	-87	123	201	117	9278	117	74842425
517	222	3739	-14	-39	57	-87	123	201	118	9381	118	74842426
520	228	3752	-16	-36	-34	-84	122	204	119	9437	119	74842426
517	242	3715	-16	-39	2	-84	122	204	120	9540	120	74842444
510	229	3734	-17	-39	53	-85	119	205	121	9596	121	74842444
508	229	3757	-18	-36	-17	-85	119	205	122	9699	122	74842447
507	228	3739	-17	-37	33	-85	121	213	123	9755	123	74842448
516	221	3722	-12	-38	6	-85	121	213	124	9858	124	74842448
526	223	3757	-15	-37	12	-92	126	200	125	9914	125	74842469
510	221	3715	-15	-36	-24	-92	126	200	126	10017	126	74842469
509	234	3748	-13	-39	0	-84	122	208	127	10073	127	74842472
544	239	3755	-12	-39	38	-84	122	208	128	10176	128	74842473
514	224	3749	-18	-39	-16	-87	127	199	129	10232	129	74842475
522	228	3715	-15	-39	29	-87	127	199	130	10335	130	74842477
511	219	3754	-16	-38	57	-89	125	201	131	10391	131	74842478
511	229	3744	-13	-40	8	-89	125	201	132	10494	132	74842492
511	212	3757	-14	-37	45	-91	127	205	133	10550	133	74842493
516	237	3759	-10	-38	40	-91	127	205	134	10653	134	74842495
514	223	3743	-14	-36	34	-86	122	204	135	10709	135	74842503
507	210	3722	-13	-38	8	-86	122	204	136	10812	136	74842503
514	218	3747	-12	-37	-5	-83	123	209	137	10868	137	74842516
498	233	3740	-15	-34	40	-83	123	209	138	10971	138	74842516
503	231	3744	-17	-37	15	-84	120	202	139	11027	139	74842519
506	231	3750	-20	-38	15	-84	120	202	140	11130	140	74842553
527	216	3753	-13	-38	69	-89	121	203	141	11186	141	74842553
506	223	3743	-16	-39	-13	-89	121	203	142	11289	142	74842556
523	238	3759	-18	-38	-24	-85	123	205	143	11345	143	74842557
510	223	3743	-15	-38	31	-85	123	205	144	11448	144	74842559
521	222	3742	-17	-36	1	-93	123	203	145	11504	145	74842560
531	235	3753	-14	-37	46	-93	123	203	146	11607	146	74842561
518	225	3734	-15	-38	49	-92	124	208	147	11663	147	74842564
514	218	3749	-18	-37	-1	-92	124	208	148	11766	148	74842564
523	227	3736	-15	-39	30	-88	118	206	149	11822	149	74842579
504	226	3756	-15	-39	26	-88	118	206	150	11925	150	74842579
496	222	3743	-14	-37	20	-88	126	198	151	11981	151	74842579
525	225	3750	-12	-38	-47	-88	126	198	152	12084	152	74842586
515	217	3762	-14	-38	72	-86	124	206	153	12140	153	74842586
502	222	3752	-14	-38	-56	-86	124	206	154	12243	154	74842604
517	214	3733	-15	-36	-17	-87	119	207	155	12299	155	74842605
508	223	3761	-16	-38	12	-87	119	207	156	12402	156	74842605
528	233	3744	-16	-38	3	-84	120	200	157	12458	157	74842611
521	231	3739	-13	-38	-11	-84	120	200	158	12561	158	74842612
516	221	3755	-13	-36	33	-87	119	203	159	12617	159	74842627
504	225	3738	-15	-38	19	-87	119	203	160	12720	160	74842628
525	230	3762	-17	-39	4	-87	121	207	161	12776	161	74842630
526	229	3758	-14	-38	-26	-87	121	207	162	12879	162	74842635
529	226	3769	-15	-38	16	-94	128	204	163	12935	163	74842635
507	240	3740	-15	-36	17	-94	128	204	164	13038	164	74842654
491	227	3727	-15	-36	16	-84	122	208	165	13094	165	74842654
522	228	3743	-16	-38	25	-84	122	208	166	13197	166	74842656
518	227	3736	-18	-39	38	-84	126	200	167	13253	167	74842659
517	222	3721	-15	-41	47	-84	126	200	168	13356	168	74842659
509	238	3741	-15	-38	34	-86	124	202	169	13412	169	74842678
518	246	3750	-17	-36	14	-86	124	202	170	13515	170	74842679
522	223	3756	-13	-37	32	-84	124	206	171	13571	171	74842680
513	217	3767	-12	-37	5	-84	124	206	172	13674	172	74842682
521	231	3745	-16	-37	48	-85	119	199	173	13730	173	74842683
506	231	3762	-15	-38	51	-85	119	199	174	13833	174	74842703
503	221	3736	-17	-39	48	-92	122	206	175	13889	175	74842703
518	224	3724	-18	-40	9	-92	122	206	176	13992	176	74842706
515	215	3750	-15	-38	-10	-93	119	201	177	14048	177	74842706
510	209	3762	-18	-38	42	-93	119	201	178	14151	178	74842706
514	232	3732	-15	-37	-2	-86	120	200	179	14207	179	74842727
497	219	3769	-16	-37	26	-86	120	200	180	14310	180	74842728
524	228	3745	-16	-37	3	-90	120	206	181	14366	181	74842731
523	231	3734	-12	-40	59	-90	120	206	182	14469	182	74842731
512	201	3745	-18	-38	56	-88	128	200	183	14525	183	74842734
514	227	3767	-14	-38	36	-88	128	200	184	14628	184	74842753
526	218	3748	-14	-37	-9	-80	118	208	185	14684	185	74842753
512	218	3741	-17	-37	24	-80	118	208	186	14787	186	74842756
504	222	3752	-16	-37	-4	-88	120	196	187	14843	187	74842756
507	232	3755	-15	-39	49	-88	120	196	188	14946	188	74842759
506	229	3747	-14	-39	6	-93	121	203	189	15002	189	74842777
525	237	3727	-16	-37	7	-93	121	203	190	15105	190	74842778
494	231	3743	-16	-39	21	-88	122	202	191	15161	191	74842781
515	218	3748	-17	-37	32	-88	122	202	192	15264	192	74842781
512	225	3745	-17	-40	-7	-88	124	202	193	15320	193	74842784
499	215	3752	-15	-38	54	-88	124	202	194	15423	194	74842803
518	224	3766	-12	-37	8	-88	124	200	195	15479	195	74842803
517	243	3751	-17	-38	24	-88	124	200	196	15582	196	74842806
513	240	3740	-15	-36	-10	-88	124	216	197	15638	197	74842807
518	218	3730	-15	-37	57	-88	124	216	198	15741	198	74842809
512	227	3746	-14	-37	29	-96	126	196	199	15797	199	74842828
527	217	3759	-17	-36	38	-96	126	196	200	15900	200	74842828
521	229	3744	-14	-39	57	-84	128	204	201	15956	201	74842831
535	221	3763	-13	-36	-60	-84	128	204	202	16059	202	74842831
520	225	3748	-17	-38	16	-83	117	201	203	16115	203	74842839
492	217	3736	-14	-39	-43	-83	117	201	204	16218	204	74842840
515	216	3731	-10	-37	38	-95	125	199	205	16274	205	74842840
509	224	3786	-13	-38	18	-95	125	199	206	16377	206	74842854
512	245	3743	-13	-39	-17	-87	119	205	207	16433	207	74842854
517	228	3751	-13	-37	5	-87	119	205	208	16536	208	74842862
511	214	3731	-12	-39	-12	-84	122	200	209	16592	209	74842863
514	240	3732	-12	-39	19	-84	122	200	210	16695	210	74842877
516	221	3728	-15	-37	67	-88	120	204	211	16751	211	74842879
526	224	3742	-15	-39	66	-88	120	204	212	16854	212	74842879
532	237	3753	-16	-39	63	-88	122	200	213	16910	213	74842888
519	229	3737	-14	-39	30	-88	122	200	214	17013	214	74842888
523	225	3726	-16	-37	37	-87	123	203	215	17069	215	74842890
508	231	3736	-16	-39	-7	-87	123	203	216	17172	216	74842902
524	220	3760	-14	-41	35	-84	118	208	217	17228	217	74842903
506	228	3736	-10	-36	24	-84	118	208	218	17331	218	74842911
505	216	3762	-16	-39	35	-87	125	205	219	17387	219	74842911
511	227	3738	-16	-40	-21	-87	125	205	220	17490	220	74842913
522	208	3736	-17	-35	36	-87	123	205	221	17546	221	74842927
522	209	3746	-13	-39	-8	-87	123	205	222	17649	222	74842928
500	221	3736	-15	-39	39	-89	123	205	223	17705	223	74842936
499	224	3748	-16	-37	-18	-89	123	205	224	17808	224	74842937
507	230	3745	-12	-39	29	-82	116	206	225	17864	225	74842939
520	220	3732	-15	-37	39	-82	116	206	226	17967	226	74842953
522	225	3739	-16	-39	22	-89	119	209	227	18023	227	74842953
535	217	3742	-16	-40	63	-89	119	209	228	18126	228	74842960
510	237	3752	-15	-39	0	-87	123	203	229	18182	229	74842961
520	231	3764	-15	-38	16	-87	123	203	230	18285	230	74842962
508	214	3761	-15	-38	40	-87	111	207	231	18341	231	74842977
512	221	3732	-16	-35	1	-87	111	207	232	18444	232	74842978
518	229	3745	-12	-39	33	-87	123	203	233	18500	233	74842982
513	223	3769	-15	-39	29	-87	123	203	234	18603	234	74842983
514	206	3743	-14	-37	40	-85	125	207	235	18659	235	74843029
490	214	3743	-18	-39	-4	-85	125	207	236	18762	236	74843029
529	218	3764	-15	-37	14	-84	126	200	237	18818	237	74843029
505	218	3745	-14	-38	39	-84	126	200	238	18921	238	74843032
517	202	3738	-16	-40	-7	-89	121	203	239	18977	239	74843033
521	223	3756	-13	-37	30	-89	121	203	240	19080	240	74843036
513	231	3733	-16	-37	60	-89	119	199	241	19136	241	74843036
524	228	3735	-14	-37	2	-89	119	199	242	19239	242	74843039
528	221	3753	-18	-38	37	-89	123	207	243	19295	243	74843054
530	221	3743	-17	-37	21	-89	123	207	244	19398	244	74843054
512	234	3751	-16	-37	24	-84	122	198	245	19454	245	74843057
519	222	3745	-14	-37	57	-84	122	198	246	19557	246	74843058
518	241	3726	-13	-37	-23	-90	120	206	247	19613	247	74843060
526	215	3753	-13	-40	39	-90	120	206	248	19716	248	74843061
525	225	3758	-12	-37	-44	-88	130	208	249	19772	249	74843061
503	219	3731	-14	-38	24	-88	130	208	250	19876	250	74843077
497	215	3744	-18	-38	27	-82	124	202	251	19932	251	74843078
525	219	3751	-15	-38	-26	-82	124	202	252	20035	252	74843080
497	221	3758	-18	-38	3	-87	121	205	253	20091	253	74843081
498	218	3753	-14	-38	-11	-87	121	205	254	20194	254	74843082
507	221	3747	-11	-37	-34	-86	122	208	255	20250	255	74843102
495	217	3760	-15	-39	31	-86	122	208	256	20353	256	74843103
508	224	3725	-17	-38	9	-88	122	202	257	20409	257	74843105
495	231	3752	-15	-38	58	-88	122	202	258	20512	258	74843106
504	214	3761	-16	-36	42	-87	119	201	259	20568	259	74843106
528	229	3742	-17	-37	0	-87	119	201	260	20671	260	74843127
522	233	3726	-17	-38	11	-91	123	209	261	20727	261	74843128
510	217	3760	-9	-42	9	-91	123	209	262	20830	262	74843131
524	220	3762	-16	-40	27	-87	117	205	263	20886	263	74843132
527	229	3769	-18	-39	65	-87	117	205	264	20989	264	74843132
512	215	3742	-16	-38	18	-91	127	199	265	21045	265	74843152
515	227	3740	-15	-40	28	-91	127	199	266	21148	266	74843153
519	227	3760	-12	-39	38	-86	126	206	267	21204	267	74843156
515	216	3735	-15	-35	37	-86	126	206	268	21307	268	74843156
517	219	3765	-14	-38	52	-82	130	206	269	21363	269	74843159
509	227	3742	-17	-36	-18	-82	130	206	270	21466	270	74843177
503	221	3762	-13	-40	37	-85	121	201	271	21522	271	74843177
519	217	3753	-15	-39	22	-85	121	201	272	21625	272	74843181
508	221	3747	-12	-37	6	-90	126	206	273	21681	273	74843181
503	211	3757	-14	-37	-40	-90	126	206	274	21784	274	74843184
519	213	3748	-18	-35	-7	-93	123	201	275	21840	275	74843202
520	241	3718	-18	-37	61	-93	123	201	276	21943	276	74843203
505	219	3753	-12	-37	27	-91	123	203	277	21999	277	74843206
513	237	3741	-12	-38	26	-91	123	203	278	22102	278	74843207
514	220	3736	-16	-36	26	-92	130	200	279	22158	279	74843209
514	227	3766	-12	-38	1	-92	130	200	280	22261	280	74843214
534	224	3732	-15	-38	63	-87	121	199	281	22317	281	74843214
511	229	3723	-16	-37	-20	-87	121	199	282	22420	282	74843227
511	227	3747	-12	-36	27	-85	119	207	283	22476	283	74843228
517	230	3749	-15	-40	-3	-85	119	207	284	22579	284	74843230
508	226	3743	-16	-38	-32	-88	120	206	285	22635	285	74843239
503	218	3734	-17	-38	29	-88	120	206	286	22738	286	74843239
517	214	3750	-14	-37	-31	-88	120	206	287	22794	287	74843252
514	223	3739	-13	-35	14	-88	120	206	288	22897	288	74843252
507	231	3751	-11	-36	-6	-93	117	205	289	22953	289	74843255
528	228	3758	-14	-39	-2	-93	117	205	290	23056	290	74843260
507	230	3758	-13	-38	57	-90	122	200	291	23112	291	74843260
520	230	3753	-12	-39	-11	-90	122	200	292	23215	292	74843277
524	217	3765	-14	-38	82	-84	114	212	293	23271	293	74843278
519	218	3760	-13	-36	13	-84	114	212	294	23374	294	74843282
507	220	3737	-17	-37	54	-85	127	195	295	23430	295	74843284
506	234	3754	-17	-39	20	-85	127	195	296	23533	296	74843286
530	229	3735	-16	-37	14	-89	117	201	297	23589	297	74843303
524	219	3770	-15	-37	39	-89	117	201	298	23692	298	74843303
527	215	3758	-15	-39	18	-84	118	200	299	23748	299	74843306
520	231	3739	-14	-37	50	-84	118	200	300	23851	300	74843306
507	233	3756	-15	-36	64	-94	126	196	301	23907	301	74843310
520	220	3734	-13	-38	-38	-94	126	196	302	24010	302	74843327
521	234	3733	-17	-37	80	-84	122	202	303	24066	303	74843327
517	218	3753	-15	-36	35	-84	122	202	304	24169	304	74843331
522	214	3787	-17	-40	1	-87	123	203	305	24225	305	74843331
520	224	3781	-11	-41	67	-87	123	203	306	24328	306	74843341
517	226	3746	-17	-37	13	-91	117	207	307	24384	307	74843352
502	245	3757	-16	-39	70	-91	117	207	308	24487	308	74843353
485	212	3748	-11	-41	10	-91	123	203	309	24543	309	74843356
502	219	3759	-11	-39	37	-91	123	203	310	24646	310	74843357
511	235	3774	-12	-36	26	-84	120	204	311	24702	311	74843360
514	220	3780	-13	-36	-2	-84	120	204	312	24805	312	74843380
511	242	3740	-15	-35	18	-85	123	203	313	24861	313	74843380
503	215	3749	-14	-37	18	-85	123	203	314	24964	314	74843383
520	226	3745	-14	-39	43	-88	118	206	315	25020	315	74843384
531	229	3756	-15	-38	29	-88	118	206	316	25123	316	74843386
524	229	3742	-16	-38	-10	-90	118	202	317	25179	317	74843404
514	234	3736	-16	-37	24	-90	118	202	318	25282	318	74843404
510	230	3723	-13	-36	-14	-87	121	203	319	25338	319	74843407
497	234	3736	-12	-34	25	-87	121	203	320	25441	320	74843409
515	220	3743	-15	-36	-1	-86	120	202	321	25497	321	74843428
515	223	3750	-15	-37	1	-86	120	202	322	25600	322	74843432
506	224	3754	-12	-37	16	-88	118	204	323	25656	323	74843432
519	215	3742	-17	-38	24	-88	118	204	324	25759	324	74843432
511	228	3750	-13	-40	59	-86	128	198	325	25815	325	74843432
505	234	3741	-15	-38	3	-86	128	198	326	25918	326	74843452
506	227	3760	-17	-38	-39	-88	120	200	327	25974	327	74843452
492	228	3742	-13	-39	59	-88	120	200	328	26077	328	74843454
519	228	3758	-16	-39	-24	-86	114	200	329	26133	329	74843456
529	234	3750	-17	-42	1	-86	114	200	330	26236	330	74843456
523	210	3776	-16	-42	0	-90	120	200	331	26292	331	74843463
497	204	3742	-16	-37	-12	-90	120	200	332	26395	332	74843464
512	213	3749	-15	-36	46	-87	119	205	333	26451	333	74843479
521	223	3756	-15	-38	6	-87	119	205	334	26554	334	74843480
515	221	3715	-15	-40	91	-89	125	201	335	26610	335	74843480
527	216	3740	-12	-40	36	-89	125	201	336	26713	336	74843488
503	211	3750	-13	-37	-15	-92	122	200	337	26769	337	74843489
500	230	3713	-15	-35	15	-92	122	200	338	26872	338	74843503
530	231	3729	-17	-39	46	-87	117	211	339	26928	339	74843505
520	228	3703	-14	-38	11	-87	117	211	340	27031	340	74843505
525	227	3739	-14	-38	37	-92	126	206	341	27087	341	74843514
514	229	3751	-13	-39	-51	-92	126	206	342	27190	342	74843514
519	235	3744	-13	-38	5	-90	124	208	343	27246	343	74843516
510	217	3760	-12	-38	-39	-90	124	208	344	27349	344	74843527
516	218	3747	-15	-36	7	-85	119	203	345	27405	345	74843527
530	229	3740	-19	-41	47	-85	119	203	346	27508	346	74843537
503	224	3750	-16	-37	36	-83	121	201	347	27564	347	74843537
505	253	3745	-13	-34	21	-83	121	201	348	27667	348	74843552
522	240	3756	-16	-39	52	-85	117	205	349	27723	349	74843552
524	227	3730	-13	-38	34	-85	117	205	350	27826	350	74843553
503	218	3723	-14	-36	10	-92	124	202	351	27882	351	74843562
504	219	3759	-16	-35	-10	-92	124	202	352	27985	352	74843563
506	232	3735	-16	-38	-5	-88	122	208	353	28041	353	74843577
516	222	3748	-15	-41	42	-88	122	208	354	28144	354	74843577
512	205	3705	-11	-37	75	-93	125	203	355	28200	355	74843579
499	242	3772	-11	-35	82	-93	125	203	356	28303	356	74843586
525	225	3757	-13	-38	29	-89	121	205	357	28359	357	74843586
514	239	3764	-13	-40	33	-89	121	205	358	28462	358	74843602
523	230	3740	-15	-39	18	-89	117	205	359	28518	359	74843602
507	219	3755	-16	-39	-2	-89	117	205	360	28621	360	74843604
515	208	3737	-17	-38	42	-93	127	201	361	28677	361	74843611
509	223	3726	-16	-39	-61	-93	127	201	362	28780	362	74843612
511	226	3742	-14	-39	31	-87	121	207	363	28836	363	74843627
516	217	3744	-10	-38	23	-87	121	207	364	28939	364	74843628
510	223	3737	-15	-40	-8	-83	121	205	365	28995	365	74843630
500	229	3733	-13	-37	-5	-83	121	205	366	29098	366	74843660
521	219	3749	-12	-37	-21	-92	126	198	367	29154	367	74843660
511	213	3754	-11	-36	20	-92	126	198	368	29257	368	74843681
503	213	3742	-10	-34	50	-87	121	207	369	29313	369	74843681
519	221	3736	-16	-36	39	-87	121	207	370	29416	370	74843683
517	227	3725	-17	-36	-30	-86	128	198	371	29472	371	74843685
509	236	3749	-16	-35	2	-86	128	198	372	29576	372	74843685
513	214	3751	-14	-36	-12	-88	122	200	373	29632	373	74843688
509	228	3744	-16	-33	-16	-88	122	200	374	29735	374	74843689
509	227	3738	-13	-36	11	-83	123	205	375	29791	375	74843691
517	223	3735	-14	-39	20	-83	123	205	376	29894	376	74843702
497	224	3737	-13	-36	17	-91	123	199	377	29950	377	74843702
517	211	3739	-13	-34	38	-91	123	199	378	30053	378	74843706
501	222	3741	-16	-38	-17	-92	114	200	379	30109	379	74843706
512	223	3742	-15	-35	46	-92	114	200	380	30212	380	74843709
518	227	3762	-14	-36	46	-89	119	207	381	30268	381	74843710
523	225	3730	-13	-37	-4	-89	119	207	382	30371	382	74843711
509	210	3750	-14	-36	31	-88	122	198	383	30427	383	74843727
510	226	3725	-16	-39	23	-88	122	198	384	30530	384	74843727
530	221	3723	-14	-39	42	-85	123	207	385	30586	385	74843731
511	237	3747	-15	-39	66	-85	123	207	386	30689	386	74843731
522	226	3776	-18	-39	-12	-93	121	207	387	30745	387	74843733
523	225	3766	-14	-37	25	-93	121	207	388	30848	388	74843752
519	221	3762	-14	-37	6	-80	122	202	389	30904	389	74843752
510	233	3728	-16	-39	24	-80	122	202	390	31007	390	74843756
510	244	3731	-12	-39	120	-90	126	206	391	31063	391	74843756
510	230	3733	-16	-37	39	-90	126	206	392	31166	392	74843758
513	206	3741	-12	-38	46	-87	123	205	393	31222	393	74843777
509	220	3728	-13	-38	33	-87	123	205	394	31325	394	74843777
491	221	3752	-13	-38	34	-87	117	205	395	31381	395	74843781
511	222	3734	-17	-37	8	-87	117	205	396	31484	396	74843781
518	223	3750	-16	-39	-27	-85	131	201	397	31540	397	74843783
500	226	3750	-12	-38	51	-85	131	201	398	31643	398	74843802
509	226	3739	-13	-36	4	-92	118	206	399	31699	399	74843803
520	229	3732	-16	-33	-20	-92	118	206	400	31802	400	74843806
530	221	3754	-13	-35	7	-88	122	206	401	31858	401	74843806
511	215	3744	-17	-37	18	-88	122	206	402	31961	402	74843809
525	224	3760	-13	-38	76	-95	121	203	403	32017	403	74843827
520	215	3743	-10	-42	19	-95	121	203	404	32120	404	74843828
504	220	3758	-15	-35	12	-86	116	204	405	32176	405	74843831
507	218	3743	-16	-39	-14	-86	116	204	406	32279	406	74843832
521	231	3747	-15	-39	6	-87	131	203	407	32335	407	74843834
511	223	3741	-13	-37	32	-87	131	203	408	32438	408	74843838
522	220	3742	-15	-39	42	-91	125	199	409	32494	409	74843839
519	219	3749	-13	-38	62	-91	125	199	410	32597	410	74843853
518	229	3759	-19	-38	106	-85	117	207	411	32653	411	74843854
512	235	3738	-16	-36	24	-85	117	207	412	32756	412	74843862
501	223	3753	-15	-38	26	-88	124	202	413	32812	413	74843862
528	224	3778	-13	-38	-2	-88	124	202	414	32915	414	74843865
516	225	3772	-14	-37	22	-86	118	204	415	32971	415	74843877
500	231	3770	-16	-39	63	-86	118	204	416	33074	416	74843877
521	208	3743	-16	-39	-43	-90	126	202	417	33130	417	74843886
520	212	3724	-13	-38	23	-90	126	202	418	33233	418	74843886
519	242	3766	-13	-37	58	-83	123	205	419	33289	419	74843904
503	225	3742	-16	-39	-28	-83	123	205	420	33392	420	74843905
521	222	3751	-17	-39	6	-90	126	208	421	33448	421	74843906
502	221	3739	-14	-38	-34	-90	126	208	422	33551	422	74843909
510	223	3757	-14	-39	65	-87	119	201	423	33607	423	74843910
532	218	3760	-18	-41	23	-87	119	201	424	33710	424	74843928
510	223	3747	-15	-39	18	-91	125	205	425	33766	425	74843929
515	210	3748	-14	-37	-5	-91	125	205	426	33869	426	74843930
500	234	3746	-10	-37	-27	-87	125	199	427	33925	427	74843934
515	221	3738	-13	-39	36	-87	125	199	428	34028	428	74843934
509	228	3746	-16	-38	-12	-89	119	203	429	34084	429	74843938
502	217	3728	-15	-36	-40	-89	119	203	430	34187	430	74843953
515	232	3742	-15	-37	-4	-85	123	205	431	34243	431	74843954
524	216	3752	-12	-36	0	-85	123	205	432	34346	432	74843961
517	212	3766	-15	-36	72	-92	126	204	433	34402	433	74843961
514	217	3756	-13	-38	6	-92	126	204	434	34505	434	74843963
510	224	3735	-11	-37	-8	-81	119	205	435	34561	435	74843978
508	221	3740	-15	-35	13	-81	119	205	436	34664	436	74843979
526	227	3739	-16	-34	-23	-94	124	204	437	34720	437	74843983
535	210	3734	-15	-35	80	-94	124	204	438	34823	438	74843984
498	217	3759	-14	-35	-16	-88	122	202	439	34879	439	74843985
509	227	3757	-18	-38	24	-88	122	202	440	34982	440	74844004
510	218	3743	-14	-37	8	-84	120	210	441	35038	441	74844004
500	214	3733	-13	-41	20	-84	120	210	442	35141	442	74844008
528	220	3780	-11	-37	71	-92	126	202	443	35197	443	74844008
518	229	3758	-17	-39	9	-92	126	202	444	35300	444	74844028
497	225	3747	-16	-41	36	-85	121	203	445	35356	445	74844029
505	238	3748	-16	-39	80	-85	121	203	446	35459	446	74844030
514	221	3747	-21	-37	3	-92	120	202	447	35515	447	74844032
515	218	3749	-17	-37	-11	-92	120	202	448	35618	448	74844032
496	210	3759	-13	-36	29	-84	124	200	449	35674	449	74844053
515	231	3748	-15	-36	33	-84	124	200	450	35777	450	74844053
526	225	3742	-15	-37	-31	-86	128	204	451	35833	451	74844055
510	220	3725	-13	-35	10	-86	128	204	452	35936	452	74844057
529	222	3758	-15	-37	9	-90	126	202	453	35992	453	74844057
500	211	3727	-10	-36	8	-90	126	202	454	36095	454	74844078
527	215	3738	-14	-36	-20	-89	119	209	455	36151	455	74844078
522	220	3746	-13	-37	8	-89	119	209	456	36254	456	74844081
527	217	3749	-11	-37	-7	-82	124	200	457	36310	457	74844082
522	234	3762	-14	-36	53	-82	124	200	458	36413	458	74844082
511	219	3753	-11	-38	11	-94	122	202	459	36469	459	74844103
522	221	3744	-10	-38	59	-94	122	202	460	36572	460	74844104
503	207	3734	-15	-40	9	-86	124	206	461	36628	461	74844105
517	211	3729	-15	-38	-15	-86	124	206	462	36731	462	74844107
510	229	3728	-14	-38	25	-89	127	207	463	36787	463	74844107
519	232	3750	-16	-39	-60	-89	127	207	464	36890	464	74844128
510	219	3727	-13	-38	4	-87	121	207	465	36946	465	74844128
500	215	3750	-18	-40	20	-87	121	207	466	37049	466	74844131
526	225	3757	-15	-38	-17	-82	120	204	467	37105	467	74844132
500	210	3759	-18	-37	15	-82	120	204	468	37208	468	74844132
521	235	3738	-19	-38	-12	-88	122	200	469	37264	469	74844153
512	229	3747	-15	-35	52	-88	122	200	470	37367	470	74844154
504	237	3748	-14	-37	47	-90	122	206	471	37423	471	74844157
515	232	3758	-17	-37	33	-90	122	206	472	37526	472	74844157
509	232	3752	-13	-36	9	-87	121	199	473	37582	473	74844158
512	225	3778	-12	-40	3	-87	121	199	474	37685	474	74844178
522	225	3740	-11	-39	21	-87	119	205	475	37741	475	74844178
516	224	3760	-12	-39	-30	-87	119	205	476	37844	476	74844182
511	232	3762	-14	-36	36	-87	119	203	477	37900	477	74844182
511	217	3732	-12	-38	57	-87	119	203	478	38003	478	74844184
514	218	3769	-13	-38	-13	-86	124	202	479	38059	479	74844203
516	222	3748	-12	-40	25	-86	124	202	480	38162	480	74844203
503	208	3746	-12	-40	47	-81	123	201	481	38218	481	74844207
525	225	3761	-16	-38	-17	-81	123	201	482	38321	482	74844207
522	229	3750	-13	-39	24	-92	126	204	483	38377	483	74844209
516	215	3734	-12	-36	-28	-92	126	204	484	38480	484	74844214
526	233	3755	-13	-38	-17	-88	124	198	485	38536	485	74844214
513	227	3757	-15	-40	45	-88	124	198	486	38639	486	74844228
510	215	3762	-15	-38	-22	-85	121	205	487	38695	487	74844228
505	219	3739	-16	-37	2	-85	121	205	488	38798	488	74844230
531	219	3745	-13	-36	-32	-88	122	202	489	38854	489	74844263
501	228	3745	-16	-36	-1	-88	122	202	490	38957	490	74844263
518	226	3753	-13	-38	9	-88	120	204	491	39013	491	74844267
507	220	3753	-11	-37	-36	-88	120	204	492	39116	492	74844267
530	223	3752	-12	-36	33	-94	126	204	493	39172	493	74844269
510	221	3701	-16	-36	12	-94	126	204	494	39275	494	74844271
499	211	3751	-13	-40	25	-90	126	198	495	39331	495	74844271
513	225	3737	-14	-41	76	-90	126	198	496	39434	496	74844275
512	220	3759	-15	-36	28	-89	125	199	497	39490	497	74844275
501	221	3754	-15	-38	19	-89	125	199	498	39593	498	74844277
504	218	3775	-15	-36	42	-82	116	210	499	39649	499	74844303
523	223	3741	-14	-37	83	-82	116	210	500	39752	500	74844304
512	241	3754	-16	-37	14	-87	123	209	501	39808	501	74844319
520	226	3758	-14	-38	7	-87	123	209	502	39912	502	74844320
511	224	3730	-13	-37	16	-94	128	196	503	39968	503	74844323
511	219	3740	-12	-40	4	-94	128	196	504	40071	504	74844323
509	218	3730	-15	-38	50	-85	125	201	505	40127	505	74844323
505	226	3723	-17	-38	-20	-85	125	201	506	40230	506	74844327
527	218	3750	-18	-40	17	-86	122	200	507	40286	507	74844327
508	217	3756	-17	-37	28	-86	122	200	508	40389	508	74844344
525	210	3757	-16	-39	19	-83	117	203	509	40445	509	74844344
523	215	3727	-15	-38	15	-83	117	203	510	40548	510	74844347
527	222	3748	-19	-38	34	-87	121	207	511	40604	511	74844348
509	228	3760	-15	-38	61	-87	121	207	512	40707	512	74844348
516	212	3751	-18	-38	31	-91	121	201	513	40763	513	74844370
515	226	3747	-15	-38	-11	-91	121	201	514	40866	514	74844371
528	222	3732	-16	-40	26	-85	129	205	515	40922	515	74844373
510	225	3742	-12	-37	16	-85	129	205	516	41025	516	74844374
532	219	3748	-15	-35	-38	-90	122	204	517	41081	517	74844374
513	225	3737	-12	-37	-11	-90	122	204	518	41184	518	74844393
515	225	3752	-12	-37	-35	-92	122	200	519	41240	519	74844393
509	223	3750	-13	-36	20	-92	122	200	520	41343	520	74844395
517	211	3762	-13	-36	76	-87	121	209	521	41399	521	74844397
532	216	3725	-11	-37	58	-87	121	209	522	41502	522	74844397
510	227	3733	-12	-38	65	-89	125	197	523	41558	523	74844418
538	220	3743	-15	-40	12	-89	125	197	524	41661	524	74844419
525	235	3740	-14	-41	-26	-90	126	204	525	41717	525	74844422
516	218	3739	-12	-38	1	-90	126	204	526	41820	526	74844422
513	222	3717	-11	-37	1	-89	125	201	527	41876	527	74844422
487	223	3719	-15	-37	13	-89	125	201	528	41979	528	74844443
518	211	3733	-15	-40	13	-90	120	204	529	42035	529	74844443
495	209	3739	-17	-41	-3	-90	120	204	530	42138	530	74844446
518	235	3734	-19	-41	11	-84	120	206	531	42194	531	74844447
506	228	3743	-16	-38	14	-84	120	206	532	42297	532	74844449
514	217	3743	-17	-38	34	-91	123	205	533	42353	533	74844454
528	226	3763	-15	-37	22	-91	123	205	534	42457	534	74844454
506	223	3743	-14	-38	-20	-86	120	200	535	42512	535	74844468
499	230	3750	-15	-39	13	-86	120	200	536	42615	536	74844468
523	214	3762	-19	-39	-8	-82	116	210	537	42671	537	74844470
514	223	3770	-17	-37	43	-82	116	210	538	42774	538	74844478
529	228	3729	-14	-40	-2	-90	126	206	539	42830	539	74844481
517	228	3755	-13	-40	-6	-90	126	206	540	42933	540	74844493
502	229	3765	-13	-38	73	-89	121	205	541	42989	541	74844493
508	214	3759	-15	-40	-3	-89	121	205	542	43092	542	74844495
494	240	3756	-12	-37	19	-84	132	202	543	43148	543	74844503
515	231	3712	-12	-39	17	-84	132	202	544	43251	544	74844504
515	212	3746	-17	-39	26	-86	120	206	545	43307	545	74844518
507	219	3731	-16	-38	32	-86	120	206	546	43410	546	74844518
509	231	3766	-16	-41	-17	-89	125	207	547	43466	547	74844520
499	231	3754	-14	-40	25	-89	125	207	548	43569	548	74844523
515	226	3744	-16	-42	22	-92	128	204	549	43625	549	74844523
506	232	3755	-15	-41	-24	-92	128	204	550	43728	550	74844544
507	204	3732	-16	-40	-2	-88	122	204	551	43784	551	74844545
516	226	3766	-15	-38	-22	-88	122	204	552	43887	552	74844548
510	211	3771	-16	-40	9	-85	123	203	553	43943	553	74844549
520	221	3740	-18	-39	-53	-85	123	203	554	44046	554	74844549
524	223	3755	-14	-38	35	-91	121	209	555	44102	555	74844568
505	228	3748	-16	-36	-17	-91	121	209	556	44205	556	74844569
514	212	3743	-10	-37	-12	-90	122	202	557	44261	557	74844572
500	233	3748	-14	-40	29	-90	122	202	558	44364	558	74844572
522	218	3759	-13	-39	31	-91	125	201	559	44420	559	74844572
516	209	3755	-13	-39	23	-91	125	201	560	44523	560	74844593
525	230	3761	-9	-38	14	-85	121	199	561	44579	561	74844595
512	208	3745	-14	-36	-15	-85	121	199	562	44682	562	74844597
508	225	3751	-15	-38	45	-85	121	201	563	44738	563	74844597
515	229	3753	-17	-39	-13	-85	121	201	564	44841	564	74844600
520	223	3766	-13	-37	15	-84	124	204	565	44897	565	74844618
516	211	3762	-18	-40	19	-84	124	204	566	45000	566	74844619
510	206	3754	-17	-40	-6	-81	125	203	567	45056	567	74844621
519	227	3757	-18	-40	65	-81	125	203	568	45159	568	74844622
509	232	3742	-12	-40	8	-90	124	210	569	45215	569	74844625
514	239	3750	-13	-39	15	-90	124	210	570	45318	570	74844643
521	228	3742	-11	-36	25	-91	123	201	571	45374	571	74844643
516	211	3739	-15	-36	-8	-91	123	201	572	45477	572	74844647
499	212	3733	-14	-37	67	-90	126	198	573	45533	573	74844647
503	233	3755	-14	-37	39	-90	126	198	574	45636	574	74844649
512	227	3761	-11	-35	33	-88	116	204	575	45692	575	74844670
529	218	3769	-10	-39	-44	-88	116	204	576	45795	576	74844670
518	221	3736	-15	-39	32	-90	120	206	577	45851	577	74844674
531	245	3727	-15	-36	12	-90	120	206	578	45954	578	74844674
533	228	3771	-10	-36	-8	-90	126	210	579	46010	579	74844677
522	221	3757	-15	-37	61	-90	126	210	580	46113	580	74844695
521	222	3769	-17	-37	67	-95	125	203	581	46169	581	74844696
515	216	3761	-14	-39	-17	-95	125	203	582	46272	582	74844699
517	225	3737	-14	-37	8	-89	125	205	583	46328	583	74844699
502	231	3748	-13	-36	26	-89	125	205	584	46431	584	74844704
511	221	3756	-13	-39	37	-85	123	203	585	46487	585	74844704
537	215	3766	-17	-39	55	-85	123	203	586	46590	586	74844704
524	240	3736	-15	-38	37	-81	117	207	587	46646	587	74844720
509	229	3755	-15	-41	-4	-81	117	207	588	46749	588	74844720
509	222	3762	-13	-37	-58	-88	124	202	589	46805	589	74844744
524	236	3775	-15	-40	15	-88	124	202	590	46908	590	74844745
530	218	3748	-17	-35	17	-96	126	208	591	46964	591	74844747
504	234	3753	-17	-37	-7	-96	126	208	592	47067	592	74844748
508	225	3729	-14	-39	35	-88	132	202	593	47123	593	74844748
517	239	3747	-17	-37	23	-88	132	202	594	47226	594	74844753
508	237	3743	-13	-40	17	-89	123	205	595	47282	595	74844753
526	220	3743	-16	-39	-2	-89	123	205	596	47385	596	74844769
513	233	3726	-18	-37	-12	-86	120	206	597	47441	597	74844770
515	225	3763	-19	-38	44	-86	120	206	598	47544	598	74844770
504	228	3725	-14	-40	43	-90	128	202	599	47600	599	74844779
503	233	3761	-17	-37	-7	-90	128	202	600	47703	600	74844779
510	228	3743	-19	-37	-23	-83	121	197	601	47759	601	74844782
535	222	3732	-16	-36	36	-83	121	197	602	47862	602	74844793
517	229	3723	-14	-38	16	-85	123	203	603	47918	603	74844793
520	234	3742	-14	-37	49	-85	123	203	604	48021	604	74844803
507	227	3729	-16	-36	15	-85	123	205	605	48077	605	74844803
511	220	3762	-14	-39	20	-85	123	205	606	48180	606	74844819
516	230	3773	-14	-37	40	-89	121	205	607	48236	607	74844820
522	216	3751	-12	-37	27	-89	121	205	608	48339	608	74844821
516	231	3742	-9	-38	15	-87	127	203	609	48395	609	74844828
514	240	3751	-12	-39	37	-87	127	203	610	48498	610	74844828
523	223	3745	-17	-39	17	-86	122	204	611	48554	611	74844844
517	227	3737	-17	-40	-11	-86	122	204	612	48657	612	74844844
518	225	3743	-15	-39	102	-86	122	202	613	48713	613	74844844
513	222	3728	-16	-38	-19	-86	122	202	614	48816	614	74844851
524	225	3752	-18	-40	67	-89	121	203	615	48872	615	74844852
498	237	3772	-16	-39	26	-89	121	203	616	48975	616	74844868
497	222	3746	-17	-38	-5	-87	117	209	617	49031	617	74844868
497	221	3745	-12	-36	55	-87	117	209	618	49134	618	74844868
525	215	3759	-15	-37	13	-90	124	200	619	49190	619	74844877
501	234	3751	-17	-38	-19	-90	124	200	620	49293	620	74844877
517	236	3759	-15	-35	-4	-82	122	202	621	49349	621	74844894
527	240	3761	-14	-37	9	-82	122	202	622	49452	622	74844895
502	239	3738	-15	-39	-18	-93	123	203	623	49508	623	74844897
519	216	3747	-16	-40	-13	-93	123	203	624	49611	624	74844899
503	211	3735	-16	-38	-3	-87	119	203	625	49667	625	74844900
505	215	3732	-14	-38	51	-87	119	203	626	49770	626	74844944
530	217	3762	-14	-38	28	-84	120	206	627	49826	627	74844944
511	218	3764	-14	-37	19	-84	120	206	628	49929	628	74844947
523	239	3731	-17	-38	24	-83	123	201	629	49985	629	74844948
499	230	3783	-16	-37	-16	-83	123	201	630	50088	630	74844948
496	237	3737	-13	-36	14	-90	126	204	631	50144	631	74844952
502	226	3765	-14	-36	-10	-90	126	204	632	50247	632	74844952
527	224	3745	-11	-39	28	-88	130	198	633	50303	633	74844954
524	209	3753	-13	-37	0	-88	130	198	634	50406	634	74844969
501	216	3756	-17	-41	-3	-94	124	202	635	50462	635	74844969
510	216	3734	-15	-41	-17	-94	124	202	636	50565	636	74844973
501	223	3761	-17	-39	42	-83	117	201	637	50621	637	74844973
502	221	3754	-14	-36	30	-83	117	201	638	50724	638	74844975
517	225	3763	-12	-37	-41	-85	121	205	639	50780	639	74844977
509	230	3732	-14	-38	12	-85	121	205	640	50883	640	74844977
512	232	3739	-14	-40	49	-93	129	199	641	50939	641	74844993
515	229	3743	-15	-41	-55	-93	129	199	642	51042	642	74844993
514	217	3746	-15	-38	-5	-85	119	207	643	51098	643	74845000
518	237	3716	-12	-37	23	-85	119	207	644	51201	644	74845000
515	212	3748	-14	-39	44	-88	120	198	645	51257	645	74845001
509	216	3776	-14	-36	-12	-88	120	198	646	51360	646	74845018
513	214	3761	-14	-36	-15	-91	125	205	647	51416	647	74845018
510	219	3740	-15	-40	-10	-91	125	205	648	51519	648	74845022
530	224	3760	-16	-38	8	-90	124	206	649	51575	649	74845022
500	220	3739	-15	-39	-3	-90	124	206	650	51678	650	74845024
528	234	3769	-14	-40	51	-83	125	207	651	51734	651	74845043
508	230	3748	-15	-40	8	-83	125	207	652	51837	652	74845043
525	222	3754	-19	-38	16	-85	121	205	653	51893	653	74845046
519	225	3724	-18	-38	67	-85	121	205	654	51996	654	74845047
531	225	3734	-14	-37	4	-91	121	201	655	52052	655	74845049
513	222	3755	-15	-38	23	-91	121	201	656	52155	656	74845068
508	226	3751	-15	-37	-3	-87	119	205	657	52211	657	74845068
515	215	3738	-12	-37	57	-87	119	205	658	52314	658	74845071
521	226	3749	-12	-37	10	-81	123	203	659	52370	659	74845071
512	223	3769	-17	-39	24	-81	123	203	660	52473	660	74845074
514	230	3741	-16	-41	31	-89	127	201	661	52529	661	74845095
524	235	3751	-17	-38	-25	-89	127	201	662	52632	662	74845095
526	225	3746	-17	-38	44	-88	128	202	663	52688	663	74845103
509	239	3710	-13	-37	-58	-88	128	202	664	52791	664	74845103
518	228	3749	-14	-37	6	-86	126	206	665	52847	665	74845105
515	224	3774	-17	-37	69	-86	126	206	666	52950	666	74845120
522	218	3734	-14	-39	-9	-88	122	198	667	53006	667	74845120
522	222	3752	-15	-40	21	-88	122	198	668	53109	668	74845124
514	218	3769	-14	-38	13	-89	121	199	669	53165	669	74845124
509	225	3762	-17	-38	20	-89	121	199	670	53268	670	74845128
513	241	3726	-14	-38	24	-86	122	204	671	53324	671	74845128
513	201	3741	-13	-38	-35	-86	122	204	672	53427	672	74845128
510	236	3736	-10	-36	8	-90	120	204	673	53483	673	74845145
506	227	3769	-14	-36	-20	-90	120	204	674	53586	674	74845145
527	238	3757	-15	-40	-20	-89	123	205	675	53642	675	74845150
508	242	3750	-16	-40	74	-89	123	205	676	53745	676	74845163
508	240	3751	-16	-36	-10	-91	121	199	677	53801	677	74845164
512	229	3755	-15	-37	-15	-91	121	199	678	53904	678	74845170
500	218	3736	-14	-38	12	-93	123	201	679	53960	679	74845170
524	237	3743	-15	-40	-2	-93	123	201	680	54063	680	74845174
517	233	3766	-14	-38	21	-89	119	205	681	54119	681	74845174
505	228	3743	-14	-40	30	-89	119	205	682	54222	682	74845177
500	231	3748	-13	-38	46	-88	118	198	683	54278	683	74845194
512	239	3737	-12	-39	1	-88	118	198	684	54381	684	74845194
512	221	3746	-13	-38	-4	-88	130	202	685	54437	685	74845199
519	226	3757	-16	-38	-1	-88	130	202	686	54540	686	74845199
514	226	3756	-13	-37	41	-83	119	203	687	54596	687	74845203
504	238	3753	-13	-39	45	-83	119	203	688	54699	688	74845219
507	231	3750	-15	-37	-31	-88	124	204	689	54755	689	74845219
508	244	3757	-12	-38	67	-88	124	204	690	54858	690	74845223
507	215	3732	-14	-38	-17	-83	121	199	691	54914	691	74845223
520	225	3752	-14	-36	-29	-83	121	199	692	55017	692	74845227
515	235	3751	-16	-34	5	-90	120	208	693	55073	693	74845244
495	217	3736	-13	-40	23	-90	120	208	694	55176	694	74845244
519	230	3737	-15	-38	12	-90	126	206	695	55232	695	74845248
502	245	3745	-13	-37	63	-90	126	206	696	55335	696	74845248
489	244	3759	-14	-35	24	-90	124	204	697	55391	697	74845250
532	227	3766	-12	-40	45	-90	124	204	698	55494	698	74845269
517	232	3750	-16	-36	22	-81	123	209	699	55550	699	74845270
518	222	3758	-18	-38	-16	-81	123	209	700	55653	700	74845273
519	258	3767	-19	-39	-22	-83	125	201	701	55709	701	74845282
522	228	3767	-19	-37	4	-83	125	201	702	55812	702	74845293
523	232	3775	-16	-36	28	-84	116	204	703	55868	703	74845293
518	218	3735	-15	-36	8	-84	116	204	704	55971	704	74845294
509	220	3734	-14	-37	29	-90	124	206	705	56027	705	74845296
516	216	3731	-10	-37	50	-90	124	206	706	56130	706	74845297
510	226	3755	-14	-37	31	-87	123	197	707	56186	707	74845318
506	224	3742	-16	-37	-8	-87	123	197	708	56289	708	74845318
521	234	3752	-17	-35	59	-95	125	209	709	56345	709	74845320
508	233	3757	-19	-35	29	-95	125	209	710	56448	710	74845321
520	219	3731	-14	-34	24	-89	123	203	711	56504	711	74845322
515	202	3748	-12	-38	43	-89	123	203	712	56607	712	74845343
519	230	3771	-14	-38	52	-95	119	201	713	56663	713	74845343
537	212	3757	-16	-37	15	-95	119	201	714	56766	714	74845345
523	237	3740	-13	-38	2	-91	119	205	715	56822	715	74845346
521	227	3739	-13	-37	28	-91	119	205	716	56925	716	74845347
515	216	3758	-14	-37	-8	-90	126	200	717	56981	717	74845367
517	235	3758	-14	-39	15	-90	126	200	718	57084	718	74845368
511	224	3761	-14	-36	-35	-91	119	201	719	57140	719	74845370
512	203	3761	-12	-36	29	-91	119	201	720	57243	720	74845371
522	237	3759	-11	-35	35	-91	123	199	721	57299	721	74845373
521	227	3723	-14	-35	-33	-91	123	199	722	57402	722	74845392
513	213	3747	-14	-37	33	-87	119	205	723	57458	723	74845394
522	223	3741	-12	-40	10	-87	119	205	724	57561	724	74845395
509	234	3749	-16	-36	2	-88	122	206	725	57617	725	74845396
513	229	3712	-14	-37	19	-88	122	206	726	57720	726	74845398
514	217	3740	-15	-37	33	-88	126	202	727	57776	727	74845418
531	230	3757	-14	-37	26	-88	126	202	728	57879	728	74845418
515	228	3729	-15	-36	-1	-85	123	205	729	57935	729	74845420
501	225	3745	-18	-36	-26	-85	123	205	730	58038	730	74845421
518	218	3744	-16	-37	-5	-90	128	202	731	58094	731	74845422
514	231	3738	-15	-38	12	-90	128	202	732	58197	732	74845443
503	235	3751	-14	-38	45	-81	119	203	733	58253	733	74845444
518	242	3737	-11	-36	-48	-81	119	203	734	58357	734	74845446
518	220	3748	-13	-38	-10	-87	119	209	735	58412	735	74845447
504	226	3757	-13	-38	-7	-87	119	209	736	58516	736	74845447
525	228	3750	-12	-37	-2	-87	123	201	737	58572	737	74845454
519	237	3753	-13	-37	-7	-87	123	201	738	58675	738	74845455
521	227	3762	-11	-36	-6	-86	114	206	739	58731	739	74845468
509	234	3751	-14	-36	8	-86	114	206	740	58834	740	74845469
510	227	3759	-13	-36	83	-88	124	206	741	58890	741	74845471
530	234	3735	-14	-38	8	-88	124	206	742	58993	742	74845479
522	226	3743	-14	-36	33	-93	123	201	743	59049	743	74845481
497	224	3741	-10	-37	-18	-93	123	201	744	59152	744	74845493
502	219	3745	-13	-36	36	-85	119	207	745	59208	745	74845493
512	223	3757	-13	-37	37	-85	119	207	746	59311	746	74845495
529	217	3736	-16	-41	3	-80	126	202	747	59367	747	74845503
515	230	3744	-11	-41	42	-80	126	202	748	59470	748	74845503
506	232	3744	-16	-36	10	-86	118	202	749	59526	749	74845519
510	223	3754	-11	-37	31	-86	118	202	750	59629	750	74845519
522	217	3742	-15	-39	38	-84	124	204	751	59685	751	74845521
508	218	3747	-16	-41	25	-84	124	204	752	59788	752	74845528
504	225	3738	-19	-38	30	-90	118	200	753	59844	753	74845528
509	220	3767	-15	-40	57	-90	118	200	754	59947	754	74845543
516	215	3741	-15	-38	42	-84	122	210	755	60003	755	74845544
501	222	3727	-14	-36	36	-84	122	210	756	60106	756	74845545
516	229	3744	-11	-42	28	-87	123	203	757	60162	757	74845552
517	218	3753	-15	-41	38	-87	123	203	758	60265	758	74845553
526	224	3769	-15	-38	-64	-91	125	201	759	60321	759	74845594
517	213	3763	-14	-37	35	-91	125	201	760	60424	760	74845594
517	221	3759	-14	-38	-55	-79	125	203	761	60480	761	74845596
514	208	3750	-14	-37	36	-79	125	203	762	60583	762	74845597
509	226	3755	-16	-37	24	-89	125	201	763	60639	763	74845598
513	221	3744	-15	-39	-6	-89	125	201	764	60742	764	74845601
525	224	3763	-16	-39	35	-87	125	201	765	60798	765	74845601
515	214	3742	-12	-40	51	-87	125	201	766	60901	766	74845619
510	242	3756	-12	-37	21	-89	121	209	767	60957	767	74845620
509	221	3742	-13	-38	65	-89	121	209	768	61060	768	74845621
524	232	3751	-11	-38	-2	-83	121	203	769	61116	769	74845623
516	228	3759	-12	-37	29	-83	121	203	770	61219	770	74845623
537	226	3754	-12	-38	65	-91	121	205	771	61275	771	74845626
506	212	3757	-15	-37	-7	-91	121	205	772	61378	772	74845627
518	237	3758	-11	-40	-21	-85	127	201	773	61434	773	74845628
500	235	3740	-14	-40	-17	-85	127	201	774	61537	774	74845644
512	219	3752	-14	-36	16	-85	113	207	775	61593	775	74845644
508	202	3766	-12	-39	-48	-85	113	207	776	61696	776	74845647
511	219	3766	-13	-38	2	-87	125	203	777	61752	777	74845648
511	222	3752	-14	-36	27	-87	125	203	778	61855	778	74845650
515	226	3751	-12	-37	-26	-86	120	202	779	61911	779	74845669
520	231	3760	-15	-38	67	-86	120	202	780	62014	780	74845669
497	231	3755	-16	-38	8	-86	122	206	781	62070	781	74845672
524	240	3738	-15	-36	12	-86	122	206	782	62173	782	74845673
518	221	3740	-14	-34	67	-88	124	202	783	62229	783	74845675
515	213	3731	-12	-39	17	-88	124	202	784	62332	784	74845694
504	235	3765	-16	-40	21	-89	117	203	785	62388	785	74845694
494	222	3733	-14	-38	14	-89	117	203	786	62491	786	74845697
515	235	3739	-17	-40	19	-88	124	208	787	62547	787	74845697
512	232	3749	-18	-36	101	-88	124	208	788	62650	788	74845700
515	230	3741	-15	-39	-23	-85	123	203	789	62706	789	74845717
508	218	3752	-11	-39	-16	-85	123	203	790	62809	790	74845718
510	224	3718	-15	-39	-13	-86	120	204	791	62865	791	74845721
516	224	3747	-13	-38	36	-86	120	204	792	62968	792	74845721
502	204	3745	-15	-38	72	-94	126	200	793	63024	793	74845742
527	228	3744	-15	-38	-23	-94	126	200	794	63127	794	74845743
521	236	3776	-10	-37	-15	-90	120	202	795	63183	795	74845743
524	217	3751	-13	-37	-6	-90	120	202	796	63286	796	74845746
511	236	3743	-17	-37	0	-91	121	201	797	63342	797	74845746
511	215	3737	-14	-37	-22	-91	121	201	798	63445	798	74845754
514	217	3755	-12	-33	23	-83	125	199	799	63501	799	74845755
523	208	3738	-17	-34	64	-83	125	199	800	63604	800	74845768
533	219	3767	-15	-36	46	-86	124	204	801	63660	801	74845769
510	224	3762	-17	-36	22	-86	124	204	802	63763	802	74845769
495	227	3735	-17	-38	30	-83	125	201	803	63819	803	74845779
517	237	3754	-9	-38	-8	-83	125	201	804	63922	804	74845779
520	228	3753	-16	-39	-1	-91	123	211	805	63978	805	74845782
498	228	3738	-16	-37	-6	-91	123	211	806	64081	806	74845792
524	229	3746	-14	-37	-10	-83	119	209	807	64137	807	74845793
505	231	3750	-16	-38	0	-83	119	209	808	64240	808	74845803
495	229	3716	-14	-41	-7	-88	118	202	809	64296	809	74845803
503	230	3742	-13	-38	14	-88	118	202	810	64399	810	74845818
514	228	3774	-18	-38	-17	-92	122	206	811	64455	811	74845819
515	238	3768	-16	-41	-17	-92	122	206	812	64558	812	74845819
518	230	3752	-12	-39	48	-90	128	204	813	64614	813	74845827
516	222	3713	-16	-36	-51	-90	128	204	814	64717	814	74845828
509	214	3739	-13	-40	20	-84	122	206	815	64773	815	74845830
494	210	3742	-15	-38	35	-84	122	206	816	64876	816	74845842
495	223	3752	-18	-37	-4	-93	119	203	817	64932	817	74845843
516	221	3744	-17	-41	33	-93	119	203	818	65035	818	74845851
504	219	3751	-14	-39	38	-89	123	199	819	65091	819	74845851
515	235	3750	-17	-38	25	-89	123	199	820	65194	820	74845854
512	222	3740	-16	-39	31	-88	124	208	821	65250	821	74845868
511	219	3731	-13	-40	62	-88	124	208	822	65353	822	74845868
525	226	3751	-12	-37	64	-84	122	202	823	65409	823	74845876
511	221	3760	-12	-36	17	-84	122	202	824	65512	824	74845877
527	221	3783	-13	-37	22	-86	124	208	825	65568	825	74845892
509	224	3746	-15	-36	51	-86	124	208	826	65671	826	74845893
526	237	3746	-15	-36	-32	-88	126	206	827	65727	827	74845893
515	223	3775	-18	-37	17	-88	126	206	828	65830	828	74845900
507	210	3774	-11	-37	3	-86	124	206	829	65886	829	74845901
505	234	3742	-16	-37	-20	-86	124	206	830	65989	830	74845917
524	223	3747	-19	-38	-4	-84	122	206	831	66045	831	74845918
524	224	3728	-14	-37	36	-84	122	206	832	66148	832	74845920
523	234	3765	-13	-37	20	-91	123	199	833	66204	833	74845925
515	220	3729	-13	-40	16	-91	123	199	834	66307	834	74845925
509	233	3732	-19	-36	26	-86	120	204	835	66363	835	74845942
518	227	3742	-18	-38	49	-86	120	204	836	66466	836	74845943
511	221	3758	-15	-38	25	-89	127	199	837	66522	837	74845945
497	217	3759	-12	-37	43	-89	127	199	838	66625	838	74845948
521	230	3732	-15	-38	-2	-87	123	201	839	66681	839	74845948
520	225	3765	-16	-38	28	-87	123	201	840	66784	840	74845967
506	233	3731	-16	-37	55	-91	117	201	841	66840	841	74845968
516	221	3741	-17	-37	14	-91	117	201	842	66943	842	74845970
513	225	3753	-12	-36	68	-89	125	201	843	66999	843	74845971
507	231	3735	-12	-38	-14	-89	125	201	844	67102	844	74845971
517	219	3753	-13	-38	67	-92	130	200	845	67158	845	74845992
516	225	3723	-14	-37	-15	-92	130	200	846	67261	846	74845992
516	230	3735	-15	-37	-19	-79	113	209	847	67317	847	74845995
515	212	3756	-14	-39	54	-79	113	209	848	67420	848	74845996
525	228	3773	-13	-36	-26	-92	122	202	849	67476	849	74845996
522	215	3754	-13	-35	67	-92	122	202	850	67579	850	74846017
518	225	3742	-13	-36	-49	-81	121	207	851	67635	851	74846018
536	220	3755	-14	-38	-22	-81	121	207	852	67738	852	74846021
528	218	3744	-16	-37	42	-94	122	210	853	67794	853	74846022
506	219	3764	-14	-37	-34	-94	122	210	854	67897	854	74846023
518	224	3749	-13	-37	-1	-91	127	199	855	67953	855	74846045
534	235	3756	-13	-39	45	-91	127	199	856	68056	856	74846045
519	233	3759	-14	-36	24	-89	123	201	857	68112	857	74846049
516	221	3735	-13	-36	57	-89	123	201	858	68215	858	74846049
508	236	3749	-13	-35	13	-94	126	204	859	68271	859	74846051
519	233	3734	-15	-35	64	-94	126	204	860	68374	860	74846066
522	219	3727	-17	-37	1	-88	120	202	861	68430	861	74846067
517	212	3757	-16	-36	-23	-88	120	202	862	68533	862	74846070
526	235	3731	-19	-39	61	-87	125	209	863	68589	863	74846070
523	234	3760	-15	-37	19	-87	125	209	864	68692	864	74846072
516	222	3756	-15	-37	15	-87	129	203	865	68748	865	74846081
509	215	3731	-14	-36	-2	-87	129	203	866	68851	866	74846082
509	218	3753	-13	-37	43	-90	124	202	867	68907	867	74846108
502	215	3771	-16	-37	41	-90	124	202	868	69010	868	74846112
521	211	3733	-15	-39	8	-90	120	206	869	69066	869	74846113
521	208	3743	-14	-41	-4	-90	120	206	870	69169	870	74846114
526	231	3758	-17	-37	20	-91	119	207	871	69225	871	74846116
509	217	3749	-16	-37	-2	-91	119	207	872	69328	872	74846117
511	224	3747	-13	-36	63	-90	124	202	873	69384	873	74846118
524	224	3760	-12	-37	-9	-90	124	202	874	69487	874	74846130
512	226	3753	-14	-39	-27	-84	114	206	875	69543	875	74846131
492	236	3754	-15	-38	45	-84	114	206	876	69646	876	74846132
513	231	3745	-16	-37	-6	-92	120	202	877	69702	877	74846155
529	227	3742	-19	-37	20	-92	120	202	878	69805	878	74846156
523	240	3737	-15	-40	26	-90	124	204	879	69861	879	74846159
516	225	3771	-18	-36	24	-90	124	204	880	69965	880	74846159
519	210	3768	-18	-37	-4	-88	122	200	881	70020	881	74846159
527	236	3744	-18	-41	-24	-88	122	200	882	70123	882	74846164
526	218	3743	-15	-37	27	-91	125	205	883	70179	883	74846164
526	226	3744	-15	-36	36	-91	125	205	884	70282	884	74846180
518	227	3730	-13	-34	25	-89	119	207	885	70338	885	74846180
518	231	3747	-15	-37	73	-89	119	207	886	70441	886	74846182
511	212	3713	-16	-39	-17	-83	119	201	887	70497	887	74846189
523	217	3737	-18	-35	-1	-83	119	201	888	70600	888	74846189
516	217	3756	-13	-36	41	-94	122	200	889	70656	889	74846230
531	240	3761	-17	-39	53	-94	122	200	890	70759	890	74846231
523	231	3752	-15	-36	27	-89	119	211	891	70815	891	74846232
512	218	3754	-13	-38	12	-89	119	211	892	70918	892	74846234
507	219	3723	-15	-36	9	-86	122	200	893	70974	893	74846234
526	230	3750	-15	-35	32	-86	122	200	894	71077	894	74846237
518	234	3757	-14	-37	74	-84	122	206	895	71133	895	74846239
517	228	3733	-16	-38	35	-84	122	206	896	71236	896	74846240
498	235	3765	-16	-39	45	-86	122	202	897	71292	897	74846255
524	219	3729	-19	-39	-2	-86	122	202	898	71395	898	74846256
503	224	3752	-16	-37	2	-82	120	210	899	71451	899	74846258
513	232	3740	-16	-39	62	-82	120	210	900	71554	900	74846259
516	213	3752	-17	-38	1	-78	122	204	901	71610	901	74846261
508	222	3755	-18	-37	12	-78	122	204	902	71713	902	74846263
516	198	3748	-17	-37	49	-87	119	199	903	71769	903	74846263
510	221	3752	-16	-36	34	-87	119	199	904	71872	904	74846279
527	231	3747	-14	-38	-29	-91	121	203	905	71928	905	74846279
532	232	3750	-16	-38	-13	-91	121	203	906	72031	906	74846281
520	227	3760	-18	-37	-7	-94	126	202	907	72087	907	74846286
517	212	3729	-11	-39	27	-94	126	202	908	72190	908	74846287
511	211	3771	-15	-37	50	-89	123	203	909	72246	909	74846304
530	231	3762	-15	-40	51	-89	123	203	910	72349	910	74846304
521	221	3718	-16	-38	45	-88	124	204	911	72405	911	74846307
517	241	3750	-16	-39	17	-88	124	204	912	72508	912	74846307
526	226	3734	-14	-38	13	-92	130	198	913	72564	913	74846308
500	235	3735	-10	-40	0	-92	130	198	914	72667	914	74846328
538	231	3747	-14	-36	10	-90	126	208	915	72723	915	74846329
514	234	3744	-11	-38	-4	-90	126	208	916	72826	916	74846332
502	227	3765	-14	-39	29	-79	125	205	917	72882	917	74846332
503	221	3736	-13	-37	46	-79	125	205	918	72985	918	74846336
508	233	3754	-15	-36	-2	-86	118	204	919	73041	919	74846354
521	221	3734	-16	-38	38	-86	118	204	920	73144	920	74846354
506	212	3761	-14	-38	11	-92	116	208	921	73200	921	74846357
512	229	3749	-14	-38	-35	-92	116	208	922	73303	922	74846358
509	228	3755	-14	-38	55	-88	128	198	923	73359	923	74846360
507	234	3742	-13	-38	5	-88	128	198	924	73462	924	74846378
518	232	3751	-16	-39	50	-87	121	203	925	73518	925	74846379
502	207	3746	-15	-37	32	-87	121	203	926	73621	926	74846382
527	221	3745	-16	-37	5	-80	124	204	927	73677	927	74846382
508	231	3755	-11	-37	26	-80	124	204	928	73780	928	74846385
512	230	3749	-16	-35	36	-86	124	200	929	73836	929	74846404
520	242	3745	-16	-36	4	-86	124	200	930	73939	930	74846404
505	232	3740	-19	-35	76	-88	124	206	931	73995	931	74846407
511	230	3746	-14	-39	27	-88	124	206	932	74098	932	74846408
509	232	3738	-16	-35	3	-89	127	203	933	74154	933	74846410
502	226	3742	-15	-35	-7	-89	127	203	934	74257	934	74846429
511	224	3734	-14	-39	20	-84	124	206	935	74313	935	74846429
516	223	3747	-11	-37	-34	-84	124	206	936	74416	936	74846432
518	219	3762	-14	-37	7	-84	126	204	937	74472	937	74846433
516	210	3730	-16	-40	13	-84	126	204	938	74575	938	74846435
518	234	3757	-11	-37	-16	-85	123	201	939	74631	939	74846453
516	224	3749	-15	-38	6	-85	123	201	940	74734	940	74846454
517	230	3766	-14	-38	51	-91	125	205	941	74790	941	74846457
523	221	3744	-14	-36	28	-91	125	205	942	74893	942	74846457
522	221	3733	-15	-39	54	-92	126	204	943	74949	943	74846465
507	228	3756	-13	-39	-22	-92	126	204	944	75052	944	74846467
502	228	3733	-16	-37	12	-88	128	204	945	75108	945	74846467
527	210	3744	-15	-37	23	-88	128	204	946	75211	946	74846481
521	224	3746	-15	-36	4	-86	126	204	947	75267	947	74846481
516	250	3773	-14	-36	48	-86	126	204	948	75370	948	74846488
517	219	3749	-17	-36	-26	-90	122	202	949	75426	949	74846489
517	226	3740	-16	-35	22	-90	122	202	950	75529	950	74846506
523	221	3757	-14	-36	24	-85	121	207	951	75585	951	74846507
514	228	3753	-15	-39	-39	-85	121	207	952	75688	952	74846507
514	220	3765	-17	-38	65	-92	130	202	953	75744	953	74846512
520	234	3740	-19	-39	-38	-92	130	202	954	75847	954	74846512
537	231	3729	-12	-36	44	-89	119	201	955	75903	955	74846531
536	229	3748	-14	-38	26	-89	119	201	956	76006	956	74846532
513	221	3738	-18	-39	-39	-92	120	206	957	76062	957	74846532
533	234	3746	-14	-38	22	-92	120	206	958	76165	958	74846536
529	231	3743	-14	-39	15	-84	122	198	959	76221	959	74846536
512	243	3737	-17	-39	-29	-84	122	198	960	76324	960	74846540
508	216	3744	-13	-38	5	-90	120	200	961	76380	961	74846556
505	221	3762	-15	-37	16	-90	120	200	962	76483	962	74846557
523	212	3753	-13	-34	69	-91	123	209	963	76539	963	74846561
528	233	3765	-17	-38	-7	-91	123	209	964	76642	964	74846562
515	227	3769	-11	-38	51	-94	120	204	965	76698	965	74846565
503	212	3763	-16	-38	-19	-94	120	204	966	76801	966	74846580
521	215	3729	-18	-38	17	-87	121	205	967	76857	967	74846581
514	240	3754	-14	-37	22	-87	121	205	968	76960	968	74846585
509	217	3730	-15	-38	20	-91	125	201	969	77016	969	74846586
519	244	3722	-16	-38	24	-91	125	201	970	77119	970	74846605
499	244	3732	-16	-40	16	-87	119	205	971	77175	971	74846605
524	228	3738	-17	-34	-26	-87	119	205	972	77278	972	74846606
507	220	3734	-14	-36	31	-92	120	198	973	77334	973	74846608
502	221	3759	-17	-39	-10	-92	120	198	974	77437	974	74846609
523	223	3743	-16	-38	53	-95	127	203	975	77493	975	74846630
518	224	3768	-17	-38	53	-95	127	203	976	77596	976	74846630
511	226	3754	-15	-38	-14	-89	123	205	977	77652	977	74846632
518	224	3761	-16	-39	6	-89	123	205	978	77755	978	74846633
519	228	3752	-18	-36	34	-92	122	202	979	77811	979	74846634
502	225	3734	-15	-38	3	-92	122	202	980	77914	980	74846655
504	230	3732	-16	-38	10	-86	114	204	981	77970	981	74846655
519	234	3768	-16	-40	-30	-86	114	204	982	78073	982	74846658
533	233	3765	-18	-40	7	-87	125	201	983	78129	983	74846659
511	212	3744	-15	-38	30	-87	125	201	984	78232	984	74846659
503	222	3748	-20	-37	9	-86	124	202	985	78288	985	74846680
518	232	3734	-16	-39	-9	-86	124	202	986	78391	986	74846697
527	207	3726	-17	-37	30	-91	119	203	987	78447	987	74846698
508	215	3724	-15	-41	47	-91	119	203	988	78550	988	74846699
518	229	3759	-14	-40	-17	-87	117	197	989	78606	989	74846699
517	219	3745	-14	-38	45	-87	117	197	990	78709	990	74846705
509	221	3750	-12	-40	7	-90	126	204	991	78765	991	74846705
513	229	3726	-14	-36	34	-90	126	204	992	78868	992	74846707
511	238	3750	-14	-39	63	-90	128	204	993	78924	993	74846708
505	212	3755	-13	-37	-42	-90	128	204	994	79027	994	74846709
513	217	3747	-16	-36	59	-88	126	198	995	79083	995	74846728
510	204	3756	-14	-39	21	-88	126	198	996	79186	996	74846729
513	210	3747	-16	-38	-2	-84	124	202	997	79242	997	74846731
517	219	3741	-14	-36	42	-84	124	202	998	79345	998	74846732
513	210	3781	-12	-36	-18	-94	120	198	999	79401	999	74846732
521	228	3739	-13	-38	60	-94	120	198	1000	79504	1000	74846753
519	239	3746	-10	-36	21	-89	121	205	1001	79560	1001	74846754
516	220	3748	-14	-37	23	-89	121	205	1002	79663	1002	74846757
526	225	3732	-11	-39	51	-88	116	202	1003	79719	1003	74846758
525	226	3752	-9	-38	10	-88	116	202	1004	79822	1004	74846758
511	214	3774	-14	-37	42	-84	118	206	1005	79878	1005	74846778
506	218	3761	-16	-39	74	-84	118	206	1006	79981	1006	74846779
520	229	3757	-17	-37	39	-88	116	202	1007	80037	1007	74846782
515	226	3722	-16	-39	85	-88	116	202	1008	80141	1008	74846782
501	221	3741	-12	-39	42	-85	121	197	1009	80197	1009	74846784
506	224	3732	-11	-37	-18	-85	121	197	1010	80300	1010	74846803
519	212	3763	-14	-38	-5	-92	120	198	1011	80356	1011	74846804
515	217	3745	-15	-37	9	-92	120	198	1012	80460	1012	74846807
509	205	3756	-17	-35	-4	-89	121	205	1013	80515	1013	74846807
506	223	3718	-10	-38	-1	-89	121	205	1014	80618	1014	74846810
518	219	3765	-13	-39	44	-90	126	200	1015	80674	1015	74846828
510	227	3773	-13	-36	-13	-90	126	200	1016	80777	1016	74846829
502	213	3780	-15	-37	23	-90	124	206	1017	80833	1017	74846832
509	218	3754	-14	-38	21	-90	124	206	1018	80936	1018	74846833
529	229	3737	-12	-37	-25	-88	122	208	1019	80992	1019	74846835
514	223	3740	-16	-35	14	-88	122	208	1020	81095	1020	74846861
521	228	3740	-15	-36	21	-89	125	205	1021	81151	1021	74846861
526	213	3744	-16	-38	7	-89	125	205	1022	81254	1022	74846864
512	239	3750	-15	-37	28	-93	129	203	1023	81310	1023	74846865
517	219	3729	-14	-39	-10	-93	129	203	1024	81414	1024	74846867
500	229	3732	-14	-39	-37	-92	122	200	1025	81469	1025	74846880
518	225	3762	-15	-38	30	-92	122	200	1026	81572	1026	74846880
527	227	3746	-12	-39	41	-86	124	202	1027	81628	1027	74846883
519	226	3771	-15	-38	41	-86	124	202	1028	81731	1028	74846883
509	240	3758	-11	-38	3	-83	125	207	1029	81787	1029	74846886
503	224	3763	-12	-36	55	-83	125	207	1030	81891	1030	74846887
509	189	3758	-14	-37	45	-92	124	202	1031	81946	1031	74846888
525	220	3762	-15	-38	39	-92	124	202	1032	82049	1032	74846905
512	233	3759	-12	-39	6	-88	118	202	1033	82105	1033	74846905
519	237	3778	-15	-37	42	-88	118	202	1034	82208	1034	74846908
509	239	3747	-14	-36	28	-93	127	211	1035	82264	1035	74846908
515	220	3756	-17	-36	-30	-93	127	211	1036	82367	1036	74846909
512	222	3758	-18	-36	7	-87	117	205	1037	82423	1037	74846928
505	218	3746	-18	-38	-23	-87	117	205	1038	82526	1038	74846929
500	226	3743	-12	-36	-32	-88	122	200	1039	82582	1039	74846933
513	215	3735	-12	-38	17	-88	122	200	1040	82685	1040	74846934
507	238	3718	-16	-39	25	-88	116	204	1041	82741	1041	74846937
520	227	3748	-18	-41	29	-88	116	204	1042	82844	1042	74846953
513	225	3753	-14	-40	13	-90	122	204	1043	82900	1043	74846955
502	220	3739	-14	-37	38	-90	122	204	1044	83003	1044	74846957
506	212	3759	-16	-39	14	-88	120	198	1045	83059	1045	74846958
522	251	3770	-17	-37	-40	-88	120	198	1046	83162	1046	74846961
517	227	3765	-13	-37	21	-89	119	205	1047	83218	1047	74846981
516	235	3722	-14	-35	37	-89	119	205	1048	83321	1048	74846981
508	218	3750	-13	-34	8	-89	125	207	1049	83377	1049	74846984
490	220	3731	-13	-38	24	-89	125	207	1050	83481	1050	74846985
514	227	3728	-13	-37	3	-91	125	203	1051	83536	1051	74846987
509	226	3739	-16	-37	-50	-91	125	203	1052	83639	1052	74847006
516	236	3739	-16	-36	8	-89	117	207	1053	83695	1053	74847006
512	218	3732	-12	-40	-44	-89	117	207	1054	83799	1054	74847009
510	225	3733	-16	-39	34	-84	124	200	1055	83855	1055	74847010
502	219	3738	-17	-40	45	-84	124	200	1056	83958	1056	74847012
522	230	3749	-15	-37	11	-86	122	198	1057	84014	1057	74847032
526	235	3776	-18	-38	21	-86	122	198	1058	84117	1058	74847032
508	207	3761	-13	-39	34	-85	117	207	1059	84173	1059	74847035
501	218	3744	-12	-37	6	-85	117	207	1060	84276	1060	74847036
516	229	3768	-14	-38	3	-88	124	204	1061	84332	1061	74847038
511	212	3732	-14	-38	-7	-88	124	204	1062	84435	1062	74847055
503	207	3761	-14	-40	45	-88	122	200	1063	84491	1063	74847056
506	219	3741	-14	-38	-4	-88	122	200	1064	84594	1064	74847059
504	230	3743	-14	-38	11	-89	123	201	1065	84650	1065	74847059
518	224	3723	-13	-37	-11	-89	123	201	1066	84753	1066	74847080
515	220	3756	-13	-37	35	-86	120	202	1067	84809	1067	74847081
512	234	3764	-14	-38	34	-86	120	202	1068	84912	1068	74847081
506	218	3726	-16	-38	-26	-89	123	205	1069	84968	1069	74847084
510	206	3749	-14	-37	30	-89	123	205	1070	85071	1070	74847084
515	213	3747	-15	-38	29	-92	122	198	1071	85127	1071	74847106
512	227	3745	-14	-36	9	-92	122	198	1072	85230	1072	74847106
510	225	3743	-16	-34	37	-89	119	205	1073	85286	1073	74847108
506	225	3733	-15	-36	-3	-89	119	205	1074	85389	1074	74847109
514	218	3754	-13	-37	87	-87	127	201	1075	85445	1075	74847110
509	227	3734	-14	-39	54	-87	127	201	1076	85548	1076	74847130
514	221	3758	-15	-37	17	-87	117	199	1077	85604	1077	74847131
510	208	3740	-18	-36	68	-87	117	199	1078	85707	1078	74847133
502	218	3739	-14	-37	-6	-86	124	206	1079	85763	1079	74847134
507	225	3740	-13	-37	64	-86	124	206	1080	85866	1080	74847134
512	226	3741	-16	-41	3	-88	124	198	1081	85922	1081	74847154
525	223	3756	-15	-36	0	-88	124	198	1082	86025	1082	74847154
514	220	3759	-16	-38	43	-89	123	203	1083	86081	1083	74847157
523	238	3723	-14	-37	-12	-89	123	203	1084	86184	1084	74847158
503	225	3726	-15	-37	70	-90	126	204	1085	86240	1085	74847158
503	218	3735	-17	-37	21	-90	126	204	1086	86343	1086	74847166
515	203	3741	-17	-38	0	-89	121	205	1087	86399	1087	74847166
503	206	3732	-17	-35	-7	-89	121	205	1088	86502	1088	74847179
512	221	3756	-14	-37	28	-86	124	208	1089	86558	1089	74847181
514	226	3741	-13	-37	36	-86	124	208	1090	86661	1090	74847181
517	225	3757	-16	-38	38	-89	125	203	1091	86717	1091	74847191
521	235	3749	-15	-39	23	-89	125	203	1092	86820	1092	74847191
508	222	3734	-17	-37	58	-89	121	199	1093	86876	1093	74847193
513	225	3736	-14	-38	19	-89	121	199	1094	86979	1094	74847204
512	228	3750	-14	-37	67	-89	123	203	1095	87035	1095	74847204
507	223	3756	-15	-37	57	-89	123	203	1096	87138	1096	74847214
524	236	3749	-15	-39	6	-93	117	203	1097	87194	1097	74847215
524	224	3739	-16	-41	3	-93	117	203	1098	87297	1098	74847229
518	240	3762	-14	-40	-31	-84	116	206	1099	87353	1099	74847230
517	219	3739	-13	-37	42	-84	116	206	1100	87456	1100	74847230
521	225	3721	-18	-38	54	-86	124	204	1101	87512	1101	74847239
510	228	3754	-15	-40	-8	-86	124	204	1102	87615	1102	74847240
522	222	3760	-13	-39	20	-87	123	201	1103	87671	1103	74847254
508	231	3730	-10	-38	-12	-87	123	201	1104	87774	1104	74847255
516	218	3739	-15	-36	31	-94	122	202	1105	87830	1105	74847257
502	233	3735	-16	-35	11	-94	122	202	1106	87933	1106	74847263
523	227	3748	-12	-39	25	-90	126	198	1107	87989	1107	74847263
492	217	3757	-14	-39	33	-90	126	198	1108	88092	1108	74847279
517	216	3737	-12	-40	-10	-85	121	211	1109	88148	1109	74847279
521	235	3734	-15	-39	69	-85	121	211	1110	88251	1110	74847281
520	225	3743	-14	-38	24	-88	118	200	1111	88307	1111	74847287
514	218	3768	-16	-39	42	-88	118	200	1112	88410	1112	74847287
505	221	3770	-16	-38	29	-91	123	207	1113	88466	1113	74847304
499	223	3725	-13	-39	-12	-91	123	207	1114	88569	1114	74847306
507	231	3740	-16	-36	47	-84	124	206	1115	88625	1115	74847307
504	236	3754	-14	-39	7	-84	124	206	1116	88728	1116	74847312
510	215	3773	-14	-38	57	-91	127	201	1117	88784	1117	74847312
506	214	3752	-14	-36	18	-91	127	201	1118	88887	1118	74847329
517	214	3755	-14	-37	-66	-84	120	208	1119	88943	1119	74847329
511	232	3729	-14	-36	74	-84	120	208	1120	89046	1120	74847331
506	215	3780	-12	-37	-22	-90	124	202	1121	89102	1121	74847334
508	211	3738	-18	-34	31	-90	124	202	1122	89205	1122	74847334
520	228	3745	-16	-36	17	-90	120	204	1123	89261	1123	74847354
518	230	3760	-14	-37	-15	-90	120	204	1124	89364	1124	74847354
533	220	3754	-9	-36	-16	-89	117	205	1125	89420	1125	74847358
517	211	3754	-15	-36	-8	-89	117	205	1126	89523	1126	74847358
499	219	3756	-16	-38	45	-92	124	200	1127	89579	1127	74847359
511	216	3760	-13	-37	24	-92	124	200	1128	89682	1128	74847379
511	219	3759	-16	-39	-13	-85	117	209	1129	89738	1129	74847379
516	217	3756	-14	-37	32	-85	117	209	1130	89841	1130	74847383
514	217	3749	-18	-38	30	-87	123	197	1131	89897	1131	74847384
520	224	3722	-17	-38	8	-87	123	197	1132	90000	1132	74847385
515	234	3743	-15	-38	60	-90	124	198	1133	90056	1133	74847404
528	226	3739	-13	-37	30	-90	124	198	1134	90159	1134	74847404
517	227	3757	-14	-36	-11	-90	120	210	1135	90215	1135	74847408
502	230	3738	-14	-35	-42	-90	120	210	1136	90318	1136	74847408
510	222	3727	-20	-37	-25	-86	122	200	1137	90374	1137	74847410
507	228	3747	-18	-37	34	-86	122	200	1138	90477	1138	74847432
499	213	3764	-14	-38	15	-91	119	205	1139	90533	1139	74847432
518	248	3744	-16	-40	36	-91	119	205	1140	90636	1140	74847436
525	232	3728	-15	-39	35	-87	123	205	1141	90692	1141	74847436
522	224	3730	-17	-40	3	-87	123	205	1142	90795	1142	74847438
488	224	3766	-15	-38	30	-91	125	195	1143	90851	1143	74847457
509	224	3721	-16	-36	-32	-91	125	195	1144	90954	1144	74847457
505	221	3747	-17	-39	61	-86	120	206	1145	91010	1145	74847460
507	222	3775	-14	-39	17	-86	120	206	1146	91113	1146	74847461
508	219	3741	-15	-38	36	-87	127	195	1147	91169	1147	74847463
527	228	3761	-16	-38	96	-87	127	195	1148	91272	1148	74847505
524	229	3752	-15	-37	7	-88	124	198	1149	91328	1149	74847506
518	222	3755	-15	-38	39	-88	124	198	1150	91431	1150	74847509
514	225	3750	-16	-35	1	-82	120	200	1151	91487	1151	74847509
514	220	3760	-19	-38	6	-82	120	200	1152	91590	1152	74847512
521	227	3759	-13	-37	44	-96	120	206	1153	91646	1153	74847513
511	226	3743	-16	-38	-8	-96	120	206	1154	91749	1154	74847513
517	227	3749	-16	-38	28	-89	125	199	1155	91805	1155	74847530
511	222	3746	-15	-34	82	-89	125	199	1156	91908	1156	74847531
522	222	3734	-18	-39	8	-89	127	201	1157	91964	1157	74847534
513	225	3753	-16	-36	91	-89	127	201	1158	92067	1158	74847534
507	224	3723	-12	-39	14	-94	122	204	1159	92123	1159	74847535
508	220	3728	-17	-40	-18	-94	122	204	1160	92226	1160	74847538
495	226	3738	-16	-37	14	-87	123	207	1161	92282	1161	74847538
505	239	3749	-19	-37	-11	-87	123	207	1162	92385	1162	74847555
512	215	3751	-14	-38	3	-84	122	202	1163	92441	1163	74847556
518	227	3730	-15	-40	50	-84	122	202	1164	92544	1164	74847556
513	214	3760	-12	-38	126	-85	115	205	1165	92600	1165	74847559
514	217	3742	-13	-39	8	-85	115	205	1166	92703	1166	74847560
511	226	3755	-16	-38	-43	-91	123	203	1167	92759	1167	74847563
499	219	3745	-15	-37	-16	-91	123	203	1168	92862	1168	74847564
520	218	3756	-14	-36	-23	-88	126	194	1169	92918	1169	74847566
499	236	3764	-15	-41	32	-88	126	194	1170	93022	1170	74847579
496	225	3754	-16	-38	6	-88	120	208	1171	93077	1171	74847580
514	204	3739	-14	-39	-10	-88	120	208	1172	93180	1172	74847587
501	233	3764	-18	-40	42	-90	126	198	1173	93236	1173	74847587
502	232	3745	-13	-38	-4	-90	126	198	1174	93339	1174	74847590
510	223	3754	-15	-34	56	-84	118	210	1175	93395	1175	74847604
517	225	3730	-14	-37	32	-84	118	210	1176	93498	1176	74847604
520	236	3763	-13	-37	-24	-84	116	210	1177	93554	1177	74847612
519	211	3729	-20	-39	33	-84	116	210	1178	93657	1178	74847612
519	218	3765	-13	-38	7	-84	116	202	1179	93713	1179	74847614
511	214	3741	-17	-41	22	-84	116	202	1180	93816	1180	74847629
519	220	3728	-15	-37	-4	-86	124	202	1181	93872	1181	74847630
518	226	3747	-15	-37	-2	-86	124	202	1182	93975	1182	74847634
512	231	3737	-18	-40	-3	-91	123	201	1183	94031	1183	74847635
506	211	3728	-17	-39	36	-91	123	201	1184	94134	1184	74847637
513	231	3728	-16	-38	2	-86	122	204	1185	94190	1185	74847654
511	225	3761	-15	-38	-4	-86	122	204	1186	94293	1186	74847654
529	228	3723	-16	-38	-17	-90	128	204	1187	94349	1187	74847659
514	230	3758	-13	-36	26	-90	128	204	1188	94452	1188	74847659
499	226	3775	-13	-39	43	-89	123	203	1189	94508	1189	74847679
504	204	3725	-11	-39	8	-89	123	203	1190	94611	1190	74847679
511	202	3741	-15	-37	-34	-84	124	206	1191	94667	1191	74847680
521	218	3725	-13	-39	2	-84	124	206	1192	94770	1192	74847683
524	217	3737	-17	-37	31	-94	126	204	1193	94826	1193	74847683
535	225	3754	-14	-37	0	-94	126	204	1194	94929	1194	74847704
510	242	3749	-20	-38	83	-84	118	202	1195	94985	1195	74847705
515	210	3751	-17	-37	49	-84	118	202	1196	95088	1196	74847707
507	220	3750	-17	-38	70	-86	120	204	1197	95144	1197	74847708
509	230	3745	-14	-38	31	-86	120	204	1198	95247	1198	74847708
516	240	3795	-12	-37	-37	-89	127	203	1199	95303	1199	74847729
512	231	3760	-14	-41	52	-89	127	203	1200	95406	1200	74847729
509	221	3760	-13	-37	-2	-86	120	202	1201	95462	1201	74847731
519	228	3729	-16	-37	73	-86	120	202	1202	95565	1202	74847733
513	223	3763	-15	-36	50	-90	126	200	1203	95621	1203	74847733
513	211	3735	-13	-36	22	-90	126	200	1204	95724	1204	74847754
519	224	3745	-14	-41	50	-90	122	202	1205	95780	1205	74847754
512	236	3738	-16	-39	-41	-90	122	202	1206	95883	1206	74847757
520	224	3775	-17	-35	-54	-94	122	202	1207	95939	1207	74847758
498	221	3747	-15	-38	49	-94	122	202	1208	96042	1208	74847758
499	223	3744	-14	-35	-22	-93	127	201	1209	96098	1209	74847779
508	221	3742	-16	-37	33	-93	127	201	1210	96201	1210	74847779
520	206	3746	-18	-39	-50	-90	130	200	1211	96257	1211	74847781
509	210	3737	-16	-37	27	-90	130	200	1212	96360	1212	74847783
525	227	3739	-12	-38	19	-89	125	199	1213	96416	1213	74847783
515	213	3749	-12	-41	13	-89	125	199	1214	96519	1214	74847804
521	217	3741	-15	-37	-5	-83	117	205	1215	96575	1215	74847804
517	210	3743	-14	-37	-33	-83	117	205	1216	96678	1216	74847806
529	223	3726	-11	-39	19	-88	118	206	1217	96734	1217	74847808
520	231	3749	-12	-38	67	-88	118	206	1218	96837	1218	74847809
507	232	3751	-16	-37	1	-93	127	201	1219	96893	1219	74847829
515	236	3769	-14	-38	26	-93	127	201	1220	96996	1220	74847830
515	206	3756	-15	-37	1	-88	120	208	1221	97052	1221	74847833
508	228	3739	-13	-40	17	-88	120	208	1222	97155	1222	74847833
508	214	3734	-13	-38	13	-88	126	200	1223	97211	1223	74847834
522	227	3745	-15	-37	4	-88	126	200	1224	97314	1224	74847854
505	233	3730	-16	-35	58	-89	125	201	1225	97370	1225	74847855
533	225	3717	-18	-36	-38	-89	125	201	1226	97473	1226	74847858
508	228	3751	-14	-36	-13	-84	122	208	1227	97529	1227	74847858
518	229	3741	-17	-40	55	-84	122	208	1228	97632	1228	74847860
514	220	3759	-16	-40	-26	-89	123	201	1229	97688	1229	74847865
516	230	3736	-13	-37	-47	-89	123	201	1230	97791	1230	74847866
507	208	3752	-15	-37	-20	-84	118	206	1231	97847	1231	74847881
519	214	3753	-15	-35	-12	-84	118	206	1232	97950	1232	74847882
524	233	3760	-17	-38	45	-92	124	202	1233	98006	1233	74847884
526	223	3753	-15	-38	6	-92	124	202	1234	98109	1234	74847889
513	244	3748	-15	-38	25	-92	124	202	1235	98165	1235	74847889
528	230	3739	-17	-37	2	-92	124	202	1236	98268	1236	74847907
517	227	3773	-16	-35	34	-80	120	206	1237	98324	1237	74847907
513	219	3767	-14	-38	70	-80	120	206	1238	98427	1238	74847909
512	214	3751	-13	-39	-2	-88	124	206	1239	98483	1239	74847914
517	242	3749	-13	-38	2	-88	124	206	1240	98586	1240	74847915
528	221	3750	-13	-40	-11	-80	126	202	1241	98642	1241	74847931
510	221	3748	-14	-37	44	-80	126	202	1242	98745	1242	74847932
497	228	3747	-15	-40	72	-87	123	207	1243	98801	1243	74847934
504	219	3748	-15	-38	-42	-87	123	207	1244	98904	1244	74847935
516	221	3729	-15	-39	26	-86	126	194	1245	98960	1245	74847935
502	240	3747	-18	-38	2	-86	126	194	1246	99063	1246	74847955
516	223	3744	-15	-35	48	-84	120	204	1247	99119	1247	74847956
499	220	3742	-18	-37	24	-84	120	204	1248	99222	1248	74847959
519	228	3765	-16	-36	10	-86	120	204	1249	99278	1249	74847959
520	224	3765	-14	-37	25	-86	120	204	1250	99381	1250	74847960
506	209	3749	-14	-38	29	-88	122	198	1251	99437	1251	74847980
504	239	3743	-17	-38	-4	-88	122	198	1252	99540	1252	74847982
514	228	3749	-17	-38	-11	-91	119	203	1253	99596	1253	74847984
513	230	3740	-15	-41	-12	-91	119	203	1254	99699	1254	74847985
521	226	3770	-15	-38	-10	-85	127	197	1255	99755	1255	74847986
503	220	3730	-15	-37	-1	-85	127	197	1256	99858	1256	74848004
525	226	3721	-17	-35	30	-92	122	208	1257	99914	1257	74848004
531	230	3746	-14	-39	69	-92	122	208	1258	100017	1258	74848008
527	222	3707	-17	-42	-11	-88	120	200	1259	100073	1259	74848008
510	219	3756	-16	-37	5	-88	120	200	1260	100176	1260	74848011
508	214	3742	-14	-39	5	-89	123	201	1261	100232	1261	74848029
507	224	3757	-18	-39	8	-89	123	201	1262	100335	1262	74848034
527	216	3748	-14	-37	7	-87	123	203	1263	100391	1263	74848035
500	232	3749	-16	-40	13	-87	123	203	1264	100494	1264	74848035
517	236	3764	-17	-38	31	-84	128	206	1265	100550	1265	74848036
503	236	3752	-16	-38	31	-84	128	206	1266	100653	1266	74848054
521	212	3762	-14	-36	55	-92	122	200	1267	100709	1267	74848054
520	231	3750	-16	-37	21	-92	122	200	1268	100812	1268	74848058
512	228	3751	-11	-37	24	-87	121	201	1269	100868	1269	74848058
521	217	3743	-15	-39	59	-87	121	201	1270	100971	1270	74848060
511	228	3733	-12	-37	3	-84	116	206	1271	101027	1271	74848079
525	228	3715	-15	-39	60	-84	116	206	1272	101130	1272	74848079
511	224	3722	-19	-41	11	-87	117	205	1273	101186	1273	74848083
505	218	3758	-17	-39	26	-87	117	205	1274	101289	1274	74848083
518	221	3746	-19	-39	70	-94	122	202	1275	101345	1275	74848104
517	216	3747	-17	-39	-10	-94	122	202	1276	101448	1276	74848105
514	226	3743	-21	-39	-25	-86	118	204	1277	101504	1277	74848105
506	210	3745	-19	-38	17	-86	118	204	1278	101607	1278	74848108
511	200	3771	-15	-37	7	-89	123	205	1279	101663	1279	74848108
501	227	3730	-16	-39	79	-89	123	205	1280	101766	1280	74848140
526	214	3754	-14	-39	12	-86	122	200	1281	101822	1281	74848141
510	225	3739	-18	-38	-17	-86	122	200	1282	101925	1282	74848143
511	223	3758	-15	-37	53	-83	121	205	1283	101981	1283	74848155
503	230	3745	-14	-38	3	-83	121	205	1284	102084	1284	74848157
500	243	3773	-11	-41	36	-88	126	200	1285	102140	1285	74848159
513	218	3738	-12	-40	43	-88	126	200	1286	102243	1286	74848160
513	218	3779	-13	-37	4	-87	123	205	1287	102299	1287	74848161
520	229	3737	-15	-36	6	-87	123	205	1288	102402	1288	74848163
519	239	3735	-13	-38	25	-90	122	210	1289	102458	1289	74848163
513	242	3741	-15	-38	8	-90	122	210	1290	102561	1290	74848180
503	218	3734	-14	-38	76	-89	117	199	1291	102617	1291	74848181
517	223	3749	-17	-39	38	-89	117	199	1292	102720	1292	74848183
514	227	3769	-18	-40	86	-88	118	208	1293	102776	1293	74848184
525	228	3737	-14	-34	26	-88	118	208	1294	102879	1294	74848185
512	223	3728	-13	-41	18	-82	126	210	1295	102935	1295	74848189
527	226	3735	-12	-40	2	-82	126	210	1296	103038	1296	74848190
518	231	3760	-15	-39	3	-90	122	206	1297	103094	1297	74848204
497	234	3756	-13	-37	63	-90	122	206	1298	103197	1298	74848205
516	232	3750	-14	-35	47	-95	121	205	1299	103253	1299	74848205
513	221	3751	-16	-34	59	-95	121	205	1300	103356	1300	74848214
503	227	3754	-17	-38	-23	-86	126	208	1301	103412	1301	74848214
522	221	3738	-16	-40	57	-86	126	208	1302	103515	1302	74848217
505	219	3733	-15	-39	83	-82	120	204	1303	103571	1303	74848229
506	230	3740	-13	-38	-8	-82	120	204	1304	103674	1304	74848229
511	240	3730	-16	-37	94	-90	124	200	1305	103730	1305	74848239
514	231	3746	-13	-36	14	-90	124	200	1306	103833	1306	74848239
526	227	3767	-12	-35	5	-88	122	206	1307	103889	1307	74848254
535	214	3775	-14	-37	62	-88	122	206	1308	103992	1308	74848254
508	198	3757	-17	-38	49	-87	123	201	1309	104048	1309	74848254
511	234	3734	-15	-39	25	-87	123	201	1310	104151	1310	74848263
529	222	3744	-16	-40	48	-90	126	202	1311	104207	1311	74848263
512	224	3754	-17	-38	-7	-90	126	202	1312	104310	1312	74848279
514	234	3764	-13	-38	-25	-90	120	208	1313	104366	1313	74848279
513	215	3733	-18	-40	30	-90	120	208	1314	104469	1314	74848281
511	210	3767	-17	-39	2	-84	126	202	1315	104525	1315	74848286
510	230	3761	-17	-40	58	-84	126	202	1316	104628	1316	74848287
519	228	3739	-17	-40	-34	-84	120	208	1317	104684	1317	74848304
496	206	3767	-15	-40	11	-84	120	208	1318	104787	1318	74848306
529	220	3739	-13	-37	19	-84	118	208	1319	104843	1319	74848306
518	230	3762	-14	-38	24	-84	118	208	1320	104946	1320	74848311
515	230	3750	-14	-37	13	-98	118	204	1321	105002	1321	74848312
516	238	3763	-14	-37	77	-98	118	204	1322	105105	1322	74848331
517	238	3748	-14	-38	16	-88	116	206	1323	105161	1323	74848332
512	217	3752	-13	-39	-3	-88	116	206	1324	105264	1324	74848334
524	222	3767	-16	-38	45	-93	121	201	1325	105320	1325	74848335
523	216	3755	-15	-35	9	-93	121	201	1326	105423	1326	74848336
515	214	3749	-14	-39	27	-88	124	206	1327	105479	1327	74848353
500	228	3756	-13	-38	21	-88	124	206	1328	105582	1328	74848353
520	219	3747	-10	-37	-46	-87	117	203	1329	105638	1329	74848355
527	238	3750	-12	-36	7	-87	117	203	1330	105741	1330	74848360
528	236	3743	-15	-37	61	-88	120	202	1331	105797	1331	74848360
507	217	3741	-14	-39	69	-88	120	202	1332	105900	1332	74848370
516	210	3739	-15	-38	16	-87	121	211	1333	105956	1333	74848370
505	219	3742	-14	-40	-46	-87	121	211	1334	106060	1334	74848393
522	232	3724	-14	-38	32	-81	115	207	1335	106116	1335	74848393
508	228	3744	-14	-39	8	-81	115	207	1336	106219	1336	74848395
520	232	3751	-14	-38	8	-90	120	200	1337	106275	1337	74848396
498	213	3761	-19	-36	52	-90	120	200	1338	106378	1338	74848397
514	218	3781	-14	-37	5	-89	125	199	1339	106434	1339	74848416
513	218	3744	-16	-39	-3	-89	125	199	1340	106537	1340	74848416
524	225	3740	-17	-38	45	-89	119	205	1341	106593	1341	74848419
526	219	3747	-15	-38	40	-89	119	205	1342	106696	1342	74848420
527	224	3766	-15	-36	5	-85	127	203	1343	106752	1343	74848420
503	226	3737	-14	-36	19	-85	127	203	1344	106855	1344	74848441
519	229	3734	-14	-36	11	-82	118	206	1345	106911	1345	74848441
509	225	3749	-15	-36	17	-82	118	206	1346	107014	1346	74848444
508	230	3766	-15	-38	42	-87	125	207	1347	107070	1347	74848445
521	220	3751	-14	-39	23	-87	125	207	1348	107173	1348	74848445
513	214	3740	-17	-38	35	-86	128	202	1349	107229	1349	74848466
509	226	3750	-15	-40	-8	-86	128	202	1350	107332	1350	74848466
492	220	3758	-18	-39	-18	-84	124	208	1351	107388	1351	74848469
518	210	3748	-18	-38	-20	-84	124	208	1352	107491	1352	74848470
520	231	3783	-12	-37	22	-89	123	203	1353	107547	1353	74848470
500	220	3734	-13	-40	-12	-89	123	203	1354	107650	1354	74848491
499	229	3751	-13	-39	41	-91	123	205	1355	107706	1355	74848492
511	226	3775	-17	-37	30	-91	123	205	1356	107809	1356	74848494
509	234	3756	-13	-38	44	-82	120	210	1357	107865	1357	74848495
501	237	3742	-14	-37	44	-82	120	210	1358	107968	1358	74848496
521	220	3760	-16	-39	-25	-88	122	202	1359	108024	1359	74848517
506	238	3737	-15	-40	14	-88	122	202	1360	108127	1360	74848517
500	227	3737	-13	-39	50	-86	118	208	1361	108183	1361	74848520
517	230	3739	-16	-38	-59	-86	118	208	1362	108287	1362	74848521
518	225	3740	-14	-39	33	-92	130	210	1363	108343	1363	74848521
520	206	3772	-14	-38	20	-92	130	210	1364	108446	1364	74848540
509	226	3767	-19	-39	52	-89	125	201	1365	108502	1365	74848540
500	219	3753	-16	-38	11	-89	125	201	1366	108605	1366	74848544
508	227	3775	-18	-39	45	-87	117	205	1367	108661	1367	74848544
514	221	3736	-17	-38	30	-87	117	205	1368	108764	1368	74848546
502	219	3754	-14	-38	31	-87	119	197	1369	108820	1369	74848551
507	238	3724	-14	-39	11	-87	119	197	1370	108923	1370	74848551
519	227	3708	-13	-37	-36	-83	119	209	1371	108979	1371	74848565
508	219	3749	-15	-41	28	-83	119	209	1372	109082	1372	74848565
510	235	3746	-14	-40	14	-84	120	204	1373	109138	1373	74848567
513	217	3760	-15	-36	17	-84	120	204	1374	109241	1374	74848575
520	207	3732	-14	-37	68	-92	120	198	1375	109297	1375	74848575
510	231	3743	-14	-37	4	-92	120	198	1376	109401	1376	74848594
521	228	3749	-15	-39	45	-88	118	204	1377	109456	1377	74848594
516	218	3744	-14	-41	72	-88	118	204	1378	109559	1378	74848596
526	231	3760	-14	-38	-36	-88	120	202	1379	109615	1379	74848599
499	225	3733	-14	-38	10	-88	120	202	1380	109718	1380	74848599
515	227	3753	-14	-38	19	-86	122	204	1381	109774	1381	74848615
514	212	3746	-12	-37	15	-86	122	204	1382	109877	1382	74848615
524	224	3765	-13	-36	22	-81	127	209	1383	109933	1383	74848617
509	213	3751	-14	-36	7	-81	127	209	1384	110036	1384	74848624
522	218	3758	-15	-39	22	-97	127	201	1385	110092	1385	74848624
530	221	3756	-15	-41	58	-97	127	201	1386	110195	1386	74848640
521	226	3744	-15	-38	-45	-88	118	206	1387	110251	1387	74848641
512	231	3743	-16	-40	2	-88	118	206	1388	110354	1388	74848642
525	224	3742	-17	-40	16	-89	125	205	1389	110410	1389	74848644
516	223	3735	-14	-40	9	-89	125	205	1390	110513	1390	74848644
525	224	3750	-12	-38	43	-85	123	201	1391	110569	1391	74848665
510	221	3753	-12	-37	-35	-85	123	201	1392	110672	1392	74848665
510	224	3735	-15	-37	72	-89	119	203	1393	110728	1393	74848669
522	224	3756	-17	-37	9	-89	119	203	1394	110831	1394	74848669
521	224	3750	-17	-37	-44	-90	126	204	1395	110887	1395	74848673
515	234	3753	-16	-37	-21	-90	126	204	1396	110990	1396	74848690
527	219	3734	-12	-37	63	-86	126	204	1397	111046	1397	74848691
511	203	3738	-13	-37	37	-86	126	204	1398	111149	1398	74848694
520	218	3754	-14	-34	40	-88	128	200	1399	111205	1399	74848694
518	202	3762	-12	-34	-3	-88	128	200	1400	111308	1400	74848697
512	218	3766	-11	-39	6	-85	119	201	1401	111364	1401	74848715
519	221	3774	-16	-41	32	-85	119	201	1402	111467	1402	74848717
526	224	3748	-16	-39	27	-89	121	203	1403	111523	1403	74848719
512	230	3743	-15	-39	-4	-89	121	203	1404	111626	1404	74848719
535	221	3758	-13	-37	29	-87	125	207	1405	111682	1405	74848722
509	211	3753	-12	-32	13	-87	125	207	1406	111785	1406	74848740
501	227	3744	-15	-34	23	-89	121	201	1407	111841	1407	74848740
503	213	3741	-16	-38	33	-89	121	201	1408	111944	1408	74848744
516	235	3745	-14	-38	14	-90	124	204	1409	112000	1409	74848744
511	218	3731	-12	-38	64	-90	124	204	1410	112103	1410	74848746
517	218	3770	-9	-38	33	-88	122	202	1411	112159	1411	74848792
531	215	3755	-12	-37	8	-88	122	202	1412	112262	1412	74848793
525	212	3733	-16	-36	13	-82	126	200	1413	112318	1413	74848796
508	231	3761	-13	-38	-6	-82	126	200	1414	112421	1414	74848796
513	217	3752	-14	-38	7	-90	128	204	1415	112477	1415	74848799
516	221	3756	-14	-37	50	-90	128	204	1416	112580	1416	74848800
510	231	3741	-19	-38	12	-88	124	200	1417	112636	1417	74848800
521	222	3733	-18	-37	30	-88	124	200	1418	112739	1418	74848816
516	218	3754	-19	-36	17	-86	120	202	1419	112795	1419	74848816
505	220	3721	-13	-37	8	-86	120	202	1420	112898	1420	74848820
500	230	3744	-14	-40	35	-90	118	206	1421	112954	1421	74848820
522	221	3743	-12	-38	35	-90	118	206	1422	113057	1422	74848820
513	217	3742	-18	-38	45	-85	121	203	1423	113113	1423	74848824
518	222	3744	-14	-37	-9	-85	121	203	1424	113216	1424	74848824
515	228	3738	-14	-38	19	-92	124	198	1425	113272	1425	74848842
515	223	3743	-14	-38	-19	-92	124	198	1426	113375	1426	74848843
506	216	3745	-19	-38	55	-93	123	201	1427	113431	1427	74848845
509	220	3756	-18	-39	42	-93	123	201	1428	113534	1428	74848846
508	219	3750	-16	-38	32	-85	123	205	1429	113590	1429	74848847
514	223	3761	-15	-37	3	-85	123	205	1430	113693	1430	74848850
520	230	3743	-15	-36	5	-87	121	205	1431	113749	1431	74848851
519	213	3740	-17	-38	-3	-87	121	205	1432	113852	1432	74848866
516	236	3741	-14	-38	18	-87	119	203	1433	113908	1433	74848867
523	216	3716	-14	-39	16	-87	119	203	1434	114011	1434	74848867
507	236	3746	-19	-39	45	-91	123	203	1435	114067	1435	74848876
516	210	3754	-16	-39	-16	-91	123	203	1436	114170	1436	74848876
505	232	3733	-14	-40	38	-85	119	205	1437	114226	1437	74848879
541	220	3746	-15	-39	-3	-85	119	205	1438	114329	1438	74848892
521	212	3745	-17	-36	-7	-85	123	209	1439	114385	1439	74848893
509	222	3724	-15	-36	52	-85	123	209	1440	114488	1440	74848900
510	220	3748	-15	-37	10	-94	126	200	1441	114544	1441	74848901
496	242	3762	-16	-39	73	-94	126	200	1442	114647	1442	74848916
516	215	3751	-19	-41	40	-86	126	206	1443	114703	1443	74848917
504	231	3743	-17	-40	74	-86	126	206	1444	114806	1444	74848918
520	214	3729	-14	-37	36	-90	124	204	1445	114862	1445	74848925
510	206	3767	-17	-38	13	-90	124	204	1446	114965	1446	74848925
506	244	3746	-16	-37	23	-90	126	202	1447	115021	1447	74848927
510	230	3763	-17	-37	46	-90	126	202	1448	115124	1448	74848941
513	221	3753	-15	-36	43	-87	125	203	1449	115180	1449	74848942
512	230	3734	-14	-37	78	-87	125	203	1450	115283	1450	74848949
512	217	3752	-13	-37	42	-88	122	200	1451	115339	1451	74848949
523	227	3743	-16	-36	35	-88	122	200	1452	115442	1452	74848966
502	226	3766	-17	-36	-5	-90	124	208	1453	115498	1453	74848966
516	222	3754	-14	-38	13	-90	124	208	1454	115601	1454	74848966
504	228	3776	-14	-38	31	-84	120	202	1455	115657	1455	74848971
526	230	3752	-13	-39	-27	-84	120	202	1456	115760	1456	74848973
522	238	3727	-13	-39	19	-91	125	205	1457	115816	1457	74848990
516	217	3724	-15	-38	41	-91	125	205	1458	115919	1458	74848990
510	240	3769	-14	-36	-30	-82	126	212	1459	115975	1459	74848992
501	228	3733	-13	-37	101	-82	126	212	1460	116078	1460	74848997
510	220	3743	-15	-38	22	-90	126	206	1461	116134	1461	74848998
514	226	3739	-14	-36	32	-90	126	206	1462	116237	1462	74849015
509	229	3739	-15	-36	-3	-86	116	208	1463	116293	1463	74849015
535	222	3733	-14	-35	47	-86	116	208	1464	116396	1464	74849018
525	218	3762	-11	-37	57	-89	121	197	1465	116452	1465	74849020
522	215	3792	-14	-39	43	-89	121	197	1466	116555	1466	74849020
499	234	3749	-15	-40	44	-90	124	204	1467	116611	1467	74849040
505	227	3746	-15	-39	48	-90	124	204	1468	116714	1468	74849041
511	225	3743	-14	-38	-13	-86	116	208	1469	116770	1469	74849042
522	225	3752	-16	-38	6	-86	116	208	1470	116873	1470	74849044
509	233	3752	-16	-38	9	-96	120	198	1471	116929	1471	74849044
504	237	3751	-14	-39	-12	-96	120	198	1472	117032	1472	74849065
504	218	3757	-17	-40	-5	-80	120	206	1473	117088	1473	74849065
525	190	3772	-15	-36	-14	-80	120	206	1474	117191	1474	74849067
511	214	3767	-14	-37	2	-89	125	199	1475	117247	1475	74849069
518	228	3753	-14	-36	-46	-89	125	199	1476	117350	1476	74849069
514	223	3743	-12	-41	-4	-85	125	199	1477	117406	1477	74849090
512	229	3745	-15	-39	26	-85	125	199	1478	117509	1478	74849091
517	249	3743	-17	-40	15	-87	121	207	1479	117565	1479	74849092
494	219	3732	-16	-38	54	-87	121	207	1480	117668	1480	74849094
500	216	3745	-16	-38	-17	-93	127	205	1481	117724	1481	74849094
534	227	3759	-14	-37	-10	-93	127	205	1482	117827	1482	74849115
513	227	3726	-14	-36	21	-89	121	209	1483	117883	1483	74849115
499	239	3726	-17	-36	54	-89	121	209	1484	117986	1484	74849118
516	233	3762	-12	-39	94	-84	124	202	1485	118042	1485	74849119
532	224	3749	-16	-38	40	-84	124	202	1486	118145	1486	74849119
523	218	3735	-19	-35	12	-96	124	196	1487	118201	1487	74849140
506	226	3742	-13	-37	34	-96	124	196	1488	118304	1488	74849140
523	233	3749	-15	-36	-20	-86	118	206	1489	118360	1489	74849144
519	214	3742	-14	-39	46	-86	118	206	1490	118463	1490	74849144
508	235	3764	-15	-38	20	-84	126	198	1491	118519	1491	74849146
512	229	3761	-15	-38	51	-84	126	198	1492	118622	1492	74849165
509	226	3761	-13	-37	7	-93	123	209	1493	118678	1493	74849166
503	229	3734	-13	-35	-17	-93	123	209	1494	118781	1494	74849169
510	234	3761	-13	-39	39	-86	118	210	1495	118837	1495	74849169
513	224	3737	-12	-40	-28	-86	118	210	1496	118940	1496	74849171
505	221	3756	-13	-38	-9	-90	126	206	1497	118996	1497	74849190
516	240	3732	-16	-38	-6	-90	126	206	1498	119099	1498	74849190
509	233	3758	-16	-38	49	-86	118	204	1499	119155	1499	74849194
510	229	3716	-12	-37	-39	-86	118	204	1500	119258	1500	74849194
519	232	3762	-15	-37	-58	-90	128	208	1501	119314	1501	74849196
515	230	3762	-15	-37	3	-90	128	208	1502	119417	1502	74849215
519	229	3769	-18	-39	-46	-89	123	203	1503	119473	1503	74849215
509	229	3731	-13	-39	-51	-89	123	203	1504	119576	1504	74849218
518	231	3744	-12	-37	-3	-90	120	204	1505	119632	1505	74849219
512	222	3721	-14	-38	-10	-90	120	204	1506	119735	1506	74849221
516	239	3743	-13	-37	5	-92	122	202	1507	119791	1507	74849240
525	217	3760	-17	-36	17	-92	122	202	1508	119894	1508	74849240
503	228	3758	-17	-39	33	-87	123	207	1509	119950	1509	74849244
511	222	3744	-13	-37	51	-87	123	207	1510	120053	1510	74849244
508	235	3750	-14	-38	-19	-88	132	200	1511	120109	1511	74849246
506	223	3740	-16	-36	17	-88	132	200	1512	120212	1512	74849247
512	235	3753	-11	-36	41	-91	125	203	1513	120268	1513	74849248
501	225	3737	-15	-36	-27	-91	125	203	1514	120371	1514	74849265
527	222	3744	-14	-35	38	-86	118	210	1515	120427	1515	74849265
512	231	3743	-13	-39	45	-86	118	210	1516	120530	1516	74849272
517	226	3728	-14	-39	30	-87	123	203	1517	120586	1517	74849273
515	218	3744	-13	-39	18	-87	123	203	1518	120689	1518	74849273
509	223	3765	-15	-41	18	-90	122	204	1519	120745	1519	74849291
517	232	3744	-12	-36	66	-90	122	204	1520	120848	1520	74849291
515	236	3771	-14	-39	68	-89	115	201	1521	120904	1521	74849296
521	244	3744	-19	-39	13	-89	115	201	1522	121007	1522	74849296
521	225	3756	-18	-36	-4	-93	117	199	1523	121063	1523	74849300
499	216	3738	-14	-40	72	-93	117	199	1524	121166	1524	74849317
518	227	3746	-12	-38	70	-89	119	201	1525	121222	1525	74849318
519	230	3750	-15	-37	20	-89	119	201	1526	121325	1526	74849321
525	224	3766	-15	-38	-4	-86	122	200	1527	121381	1527	74849321
514	217	3767	-18	-39	12	-86	122	200	1528	121484	1528	74849325
499	208	3742	-15	-38	8	-86	122	200	1529	121540	1529	74849341
524	235	3757	-13	-38	53	-86	122	200	1530	121643	1530	74849341
525	232	3762	-14	-37	37	-90	120	202	1531	121699	1531	74849345
528	232	3757	-15	-36	40	-90	120	202	1532	121802	1532	74849345
513	234	3748	-10	-36	44	-85	125	199	1533	121858	1533	74849349
516	214	3764	-11	-36	-40	-85	125	199	1534	121961	1534	74849366
523	215	3763	-15	-38	64	-86	124	204	1535	122017	1535	74849366
504	218	3767	-15	-39	-17	-86	124	204	1536	122120	1536	74849370
522	225	3784	-15	-37	-10	-88	126	204	1537	122176	1537	74849370
503	223	3750	-14	-35	44	-88	126	204	1538	122279	1538	74849374
513	224	3751	-15	-39	1	-86	122	202	1539	122335	1539	74849391
507	235	3743	-9	-38	42	-86	122	202	1540	122438	1540	74849391
509	230	3749	-9	-35	26	-86	122	204	1541	122494	1541	74849421
507	215	3736	-14	-36	27	-86	122	204	1542	122597	1542	74849421
502	225	3757	-16	-37	36	-85	129	203	1543	122653	1543	74849425
527	230	3760	-17	-41	-7	-85	129	203	1544	122756	1544	74849425
533	233	3749	-17	-38	26	-92	126	202	1545	122812	1545	74849426
512	211	3729	-16	-37	33	-92	126	202	1546	122915	1546	74849442
519	216	3744	-14	-35	7	-89	127	201	1547	122971	1547	74849442
516	230	3764	-16	-37	12	-89	127	201	1548	123074	1548	74849445
509	222	3746	-13	-36	36	-94	124	206	1549	123130	1549	74849446
501	215	3728	-10	-35	57	-94	124	206	1550	123233	1550	74849447
529	221	3741	-15	-42	24	-85	117	201	1551	123289	1551	74849449
506	233	3771	-16	-38	14	-85	117	201	1552	123392	1552	74849449
515	210	3720	-13	-39	38	-88	120	198	1553	123448	1553	74849466
508	217	3746	-13	-38	11	-88	120	198	1554	123551	1554	74849467
515	226	3745	-14	-38	63	-87	121	203	1555	123607	1555	74849468
504	222	3728	-14	-37	8	-87	121	203	1556	123710	1556	74849470
507	231	3746	-13	-35	43	-88	126	206	1557	123766	1557	74849471
511	232	3747	-16	-37	11	-88	126	206	1558	123869	1558	74849490
498	214	3732	-13	-39	-4	-89	121	201	1559	123925	1559	74849490
527	225	3748	-14	-39	35	-89	121	201	1560	124028	1560	74849492
526	230	3751	-15	-36	-22	-83	123	205	1561	124084	1561	74849494
511	227	3750	-18	-38	-4	-83	123	205	1562	124187	1562	74849494
498	235	3744	-14	-37	69	-87	123	199	1563	124243	1563	74849515
504	235	3734	-14	-39	-7	-87	123	199	1564	124346	1564	74849515
514	219	3733	-14	-38	50	-85	119	199	1565	124402	1565	74849517
507	224	3759	-17	-36	-12	-85	119	199	1566	124505	1566	74849518
531	216	3749	-14	-38	1	-86	124	202	1567	124561	1567	74849519
505	207	3736	-12	-38	11	-86	124	202	1568	124664	1568	74849540
505	214	3730	-13	-40	19	-88	120	204	1569	124720	1569	74849540
514	215	3737	-18	-39	-25	-88	120	204	1570	124823	1570	74849542
519	219	3729	-18	-36	27	-76	120	208	1571	124879	1571	74849543
523	206	3746	-18	-37	12	-76	120	208	1572	124982	1572	74849544
519	234	3756	-12	-35	24	-91	123	201	1573	125038	1573	74849551
527	227	3763	-16	-39	28	-91	123	201	1574	125141	1574	74849551
516	230	3756	-16	-40	11	-80	120	208	1575	125197	1575	74849565
515	225	3767	-14	-38	16	-80	120	208	1576	125300	1576	74849565
517	222	3762	-16	-39	97	-88	126	208	1577	125356	1577	74849565
524	216	3755	-17	-35	-24	-88	126	208	1578	125459	1578	74849575
494	235	3746	-15	-37	-24	-90	124	204	1579	125515	1579	74849575
523	238	3760	-11	-39	20	-90	124	204	1580	125618	1580	74849590
514	231	3739	-14	-39	9	-85	117	209	1581	125674	1581	74849590
536	224	3731	-16	-38	5	-85	117	209	1582	125777	1582	74849592
491	222	3736	-16	-38	32	-88	124	198	1583	125833	1583	74849600
502	221	3744	-17	-38	-23	-88	124	198	1584	125936	1584	74849600
519	223	3752	-13	-37	78	-82	118	204	1585	125992	1585	74849615
530	217	3749	-12	-39	48	-82	118	204	1586	126095	1586	74849615
517	235	3757	-18	-39	17	-87	125	209	1587	126151	1587	74849617
511	224	3756	-17	-37	50	-87	125	209	1588	126254	1588	74849624
505	217	3759	-13	-35	24	-91	123	197	1589	126310	1589	74849624
512	231	3748	-13	-38	15	-91	123	197	1590	126413	1590	74849640
524	233	3759	-16	-38	-7	-88	124	200	1591	126469	1591	74849640
526	222	3749	-15	-37	19	-88	124	200	1592	126572	1592	74849642
507	226	3734	-17	-36	25	-86	120	208	1593	126628	1593	74849648
506	223	3753	-13	-37	11	-86	120	208	1594	126731	1594	74849650
522	230	3730	-13	-36	18	-92	128	204	1595	126787	1595	74849665
522	226	3751	-16	-40	-2	-92	128	204	1596	126890	1596	74849665
511	225	3775	-14	-41	-15	-86	126	206	1597	126946	1597	74849667
517	197	3733	-17	-37	71	-86	126	206	1598	127049	1598	74849672
500	226	3754	-18	-37	-3	-91	123	201	1599	127105	1599	74849673
508	228	3762	-12	-37	44	-91	123	201	1600	127208	1600	74849690
514	227	3725	-13	-36	-2	-94	118	206	1601	127264	1601	74849690
521	232	3758	-13	-36	37	-94	118	206	1602	127367	1602	74849693
518	232	3771	-12	-35	-13	-85	119	201	1603	127423	1603	74849694
510	227	3759	-12	-36	50	-85	119	201	1604	127526	1604	74849694
509	218	3744	-15	-37	40	-83	123	205	1605	127582	1605	74849715
520	235	3749	-15	-38	-1	-83	123	205	1606	127685	1606	74849715
511	236	3731	-19	-39	87	-92	124	206	1607	127741	1607	74849719
510	225	3732	-17	-36	-29	-92	124	206	1608	127844	1608	74849719
520	236	3737	-19	-38	-28	-84	122	198	1609	127900	1609	74849722
509	217	3740	-14	-40	76	-84	122	198	1610	128003	1610	74849740
524	212	3763	-13	-38	32	-87	119	205	1611	128059	1611	74849740
506	225	3749	-15	-39	0	-87	119	205	1612	128162	1612	74849743
500	208	3765	-12	-35	23	-85	123	205	1613	128218	1613	74849743
520	222	3747	-15	-37	37	-85	123	205	1614	128321	1614	74849746
527	228	3761	-11	-38	30	-87	119	207	1615	128377	1615	74849767
514	221	3734	-13	-37	-11	-87	119	207	1616	128480	1616	74849768
509	221	3760	-15	-37	-3	-89	125	205	1617	128536	1617	74849771
521	224	3775	-15	-38	9	-89	125	205	1618	128639	1618	74849772
496	219	3760	-16	-37	-4	-88	126	204	1619	128695	1619	74849773
518	222	3751	-16	-34	6	-88	126	204	1620	128798	1620	74849788
504	226	3725	-14	-36	41	-87	121	203	1621	128854	1621	74849789
509	234	3746	-17	-38	-1	-87	121	203	1622	128957	1622	74849792
511	221	3745	-16	-38	22	-89	121	199	1623	129013	1623	74849792
518	222	3748	-19	-37	-3	-89	121	199	1624	129116	1624	74849794
503	211	3762	-15	-41	17	-88	120	206	1625	129172	1625	74849830
511	229	3768	-17	-39	-30	-88	120	206	1626	129275	1626	74849830
521	224	3740	-18	-39	-16	-83	119	209	1627	129331	1627	74849833
519	223	3754	-17	-36	3	-83	119	209	1628	129434	1628	74849834
517	229	3740	-12	-37	-3	-90	120	202	1629	129490	1629	74849836
513	222	3779	-12	-37	46	-90	120	202	1630	129593	1630	74849837
511	241	3752	-14	-40	17	-91	123	203	1631	129649	1631	74849838
517	218	3741	-15	-39	19	-91	123	203	1632	129752	1632	74849853
522	226	3758	-17	-37	-25	-90	122	204	1633	129808	1633	74849854
516	216	3736	-14	-38	-27	-90	122	204	1634	129911	1634	74849857
511	220	3755	-17	-38	62	-91	117	201	1635	129967	1635	74849858
520	231	3752	-13	-37	31	-91	117	201	1636	130070	1636	74849858
504	221	3745	-13	-38	51	-87	127	201	1637	130126	1637	74849865
523	234	3728	-13	-39	50	-87	127	201	1638	130229	1638	74849865
506	219	3758	-11	-36	8	-88	120	202	1639	130285	1639	74849878
506	230	3760	-9	-39	55	-88	120	202	1640	130388	1640	74849879
524	220	3744	-12	-41	25	-87	125	205	1641	130444	1641	74849881
511	218	3750	-10	-41	12	-87	125	205	1642	130547	1642	74849889
523	233	3743	-17	-41	85	-97	117	207	1643	130603	1643	74849889
525	223	3756	-16	-40	8	-97	117	207	1644	130706	1644	74849903
503	227	3762	-16	-38	42	-89	125	205	1645	130762	1645	74849904
524	237	3745	-14	-37	9	-89	125	205	1646	130865	1646	74849906
509	226	3748	-15	-37	55	-88	126	200	1647	130921	1647	74849913
503	223	3734	-16	-39	56	-88	126	200	1648	131024	1648	74849915
514	235	3745	-15	-37	68	-84	120	200	1649	131080	1649	74849928
524	222	3728	-17	-39	58	-84	120	200	1650	131183	1650	74849929
521	225	3746	-15	-38	-39	-93	127	205	1651	131239	1651	74849931
510	223	3742	-14	-39	26	-93	127	205	1652	131342	1652	74849937
506	234	3745	-14	-39	13	-88	128	196	1653	131398	1653	74849938
516	207	3745	-14	-40	51	-88	128	196	1654	131501	1654	74849953
515	216	3741	-15	-36	51	-96	122	206	1655	131557	1655	74849954
512	222	3737	-12	-36	4	-96	122	206	1656	131660	1656	74849956
512	223	3742	-12	-40	43	-90	124	200	1657	131716	1657	74849962
506	220	3747	-13	-40	40	-90	124	200	1658	131819	1658	74849962
502	198	3733	-15	-40	-38	-87	125	201	1659	131875	1659	74849978
522	223	3737	-13	-36	5	-87	125	201	1660	131978	1660	74849979
509	219	3730	-13	-38	-24	-84	120	206	1661	132034	1661	74849981
500	220	3750	-16	-37	47	-84	120	206	1662	132137	1662	74849982
521	232	3750	-14	-35	16	-88	124	198	1663	132193	1663	74849982
536	229	3736	-13	-35	-20	-88	124	198	1664	132296	1664	74850003
514	209	3753	-17	-38	32	-90	118	210	1665	132352	1665	74850004
516	228	3757	-13	-37	9	-90	118	210	1666	132455	1666	74850007
527	245	3762	-15	-38	28	-91	133	205	1667	132511	1667	74850007
503	228	3747	-17	-40	33	-91	133	205	1668	132614	1668	74850011
517	218	3749	-16	-36	1	-87	119	209	1669	132670	1669	74850028
512	227	3760	-14	-36	15	-87	119	209	1670	132773	1670	74850029
527	231	3739	-10	-40	-13	-87	121	205	1671	132829	1671	74850032
513	213	3750	-14	-36	6	-87	121	205	1672	132932	1672	74850032
514	215	3728	-15	-36	-15	-92	122	202	1673	132988	1673	74850034
489	224	3756	-15	-40	-19	-92	122	202	1674	133091	1674	74850061
514	224	3763	-16	-39	45	-90	122	204	1675	133147	1675	74850061
516	220	3753	-18	-37	22	-90	122	204	1676	133250	1676	74850064
530	209	3761	-18	-37	51	-92	128	202	1677	133306	1677	74850065
517	236	3756	-14	-38	28	-92	128	202	1678	133409	1678	74850067
529	222	3761	-11	-40	-39	-85	121	199	1679	133465	1679	74850080
518	233	3728	-13	-37	2	-85	121	199	1680	133568	1680	74850080
505	219	3760	-15	-38	-72	-89	123	205	1681	133624	1681	74850083
514	199	3755	-17	-36	2	-89	123	205	1682	133727	1682	74850083
509	225	3736	-15	-37	24	-94	128	208	1683	133783	1683	74850086
518	223	3735	-15	-35	37	-94	128	208	1684	133886	1684	74850104
522	222	3730	-17	-37	-20	-88	122	204	1685	133942	1685	74850104
507	242	3747	-12	-37	-3	-88	122	204	1686	134045	1686	74850108
511	223	3748	-12	-40	-31	-87	125	199	1687	134101	1687	74850108
514	231	3740	-15	-36	30	-87	125	199	1688	134204	1688	74850109
521	224	3730	-16	-36	-30	-88	118	202	1689	134260	1689	74850129
532	213	3747	-15	-38	46	-88	118	202	1690	134363	1690	74850130
519	218	3753	-17	-35	-44	-88	122	204	1691	134419	1691	74850133
503	227	3738	-13	-35	26	-88	122	204	1692	134522	1692	74850134
519	235	3736	-15	-36	67	-87	121	199	1693	134578	1693	74850154
504	220	3755	-17	-37	-14	-87	121	199	1694	134681	1694	74850154
527	234	3745	-16	-37	-2	-88	124	202	1695	134737	1695	74850155
515	250	3752	-15	-36	21	-88	124	202	1696	134840	1696	74850158
526	213	3754	-17	-38	13	-86	124	202	1697	134896	1697	74850158
508	226	3713	-15	-39	56	-86	124	202	1698	134999	1698	74850165
512	240	3765	-18	-39	27	-91	125	203	1699	135055	1699	74850166
514	233	3737	-15	-40	13	-91	125	203	1700	135158	1700	74850180
508	223	3725	-13	-40	-7	-86	120	206	1701	135214	1701	74850182
506	223	3759	-16	-36	-20	-86	120	206	1702	135317	1702	74850182
511	225	3752	-12	-36	0	-88	124	198	1703	135373	1703	74850190
521	227	3727	-13	-40	22	-88	124	198	1704	135476	1704	74850191
511	212	3742	-12	-41	83	-85	127	199	1705	135532	1705	74850193
512	230	3753	-15	-40	-27	-85	127	199	1706	135635	1706	74850206
512	225	3761	-14	-38	53	-82	116	206	1707	135691	1707	74850206
522	215	3740	-18	-38	36	-82	116	206	1708	135794	1708	74850214
523	218	3763	-18	-41	34	-89	127	201	1709	135850	1709	74850215
515	211	3759	-16	-40	7	-89	127	201	1710	135953	1710	74850231
515	237	3766	-15	-35	14	-85	123	205	1711	136009	1711	74850232
516	223	3745	-15	-37	18	-85	123	205	1712	136112	1712	74850232
501	223	3740	-15	-36	-7	-83	123	203	1713	136168	1713	74850239
516	219	3770	-13	-37	15	-83	123	203	1714	136271	1714	74850240
514	218	3782	-13	-37	70	-86	120	202	1715	136327	1715	74850242
510	223	3755	-12	-39	4	-86	120	202	1716	136430	1716	74850254
517	223	3739	-17	-38	26	-90	122	206	1717	136486	1717	74850255
517	231	3758	-16	-38	39	-90	122	206	1718	136589	1718	74850263
516	229	3730	-13	-38	-17	-89	123	201	1719	136645	1719	74850263
521	228	3749	-11	-38	5	-89	123	201	1720	136748	1720	74850265
509	228	3735	-13	-35	-12	-84	118	206	1721	136804	1721	74850280
516	221	3780	-16	-35	-28	-84	118	206	1722	136907	1722	74850281
515	219	3783	-14	-33	-11	-86	126	210	1723	136963	1723	74850288
519	240	3758	-16	-38	-21	-86	126	210	1724	137067	1724	74850288
506	221	3755	-15	-38	49	-89	125	199	1725	137122	1725	74850304
504	218	3757	-13	-36	18	-89	125	199	1726	137225	1726	74850305
521	218	3738	-18	-36	87	-80	122	206	1727	137281	1727	74850306
501	225	3729	-15	-37	30	-80	122	206	1728	137384	1728	74850312
503	223	3758	-16	-40	-11	-88	120	202	1729	137440	1729	74850312
510	221	3760	-10	-36	28	-88	120	202	1730	137543	1730	74850329
510	229	3738	-14	-37	-39	-85	119	203	1731	137599	1731	74850330
510	212	3729	-14	-42	43	-85	119	203	1732	137702	1732	74850332
520	218	3744	-13	-42	7	-92	122	202	1733	137758	1733	74850334
522	243	3754	-14	-36	39	-92	122	202	1734	137861	1734	74850334
519	211	3744	-16	-36	19	-83	127	199	1735	137917	1735	74850354
508	239	3756	-18	-39	-13	-83	127	199	1736	138020	1736	74850355
513	228	3756	-18	-40	60	-85	125	209	1737	138076	1737	74850357
529	229	3764	-16	-40	39	-85	125	209	1738	138179	1738	74850358
523	217	3744	-14	-37	-30	-89	123	195	1739	138235	1739	74850358
510	230	3746	-12	-37	17	-89	123	195	1740	138338	1740	74850379
521	224	3740	-16	-39	-81	-80	124	204	1741	138394	1741	74850380
526	219	3745	-19	-39	-8	-80	124	204	1742	138497	1742	74850381
499	217	3751	-13	-38	-2	-88	122	208	1743	138553	1743	74850383
517	221	3744	-15	-38	-12	-88	122	208	1744	138656	1744	74850383
504	223	3756	-18	-35	38	-93	131	197	1745	138712	1745	74850404
535	218	3756	-14	-38	35	-93	131	197	1746	138815	1746	74850404
528	213	3763	-14	-34	8	-85	127	207	1747	138871	1747	74850407
524	228	3749	-14	-36	39	-85	127	207	1748	138974	1748	74850408
507	230	3754	-17	-40	70	-88	126	202	1749	139030	1749	74850408
515	233	3730	-14	-39	49	-88	126	202	1750	139133	1750	74850429
516	223	3728	-13	-36	47	-88	118	204	1751	139189	1751	74850429
512	215	3737	-16	-37	45	-88	118	204	1752	139292	1752	74850433
517	229	3750	-17	-37	57	-84	120	202	1753	139348	1753	74850433
506	220	3748	-12	-38	-19	-84	120	202	1754	139451	1754	74850433
522	228	3729	-14	-40	58	-92	126	202	1755	139507	1755	74850454
512	209	3730	-16	-40	-14	-92	126	202	1756	139610	1756	74850455
520	229	3733	-13	-40	75	-87	121	201	1757	139666	1757	74850458
518	213	3756	-17	-37	-2	-87	121	201	1758	139769	1758	74850458
520	214	3771	-14	-39	-19	-85	129	203	1759	139825	1759	74850459
512	223	3769	-14	-37	55	-85	129	203	1760	139928	1760	74850479
525	215	3755	-13	-37	6	-91	127	199	1761	139984	1761	74850479
525	227	3754	-16	-37	18	-91	127	199	1762	140087	1762	74850483
511	231	3728	-16	-36	-28	-87	129	201	1763	140143	1763	74850483
511	230	3760	-13	-35	-6	-87	129	201	1764	140246	1764	74850485
523	216	3736	-14	-36	60	-91	121	195	1765	140302	1765	74850504
511	216	3754	-16	-38	50	-91	121	195	1766	140405	1766	74850505
521	233	3741	-16	-39	63	-89	123	203	1767	140461	1767	74850508
519	226	3754	-17	-38	39	-89	123	203	1768	140564	1768	74850509
512	238	3741	-12	-38	64	-93	131	205	1769	140620	1769	74850510
525	241	3756	-13	-38	61	-93	131	205	1770	140723	1770	74850529
510	205	3750	-9	-39	42	-93	127	201	1771	140779	1771	74850529
512	240	3746	-15	-38	25	-93	127	201	1772	140882	1772	74850533
519	219	3778	-11	-37	-4	-89	125	203	1773	140938	1773	74850533
511	227	3748	-15	-36	26	-89	125	203	1774	141041	1774	74850535
505	220	3765	-14	-37	-13	-91	119	203	1775	141097	1775	74850554
502	235	3762	-10	-38	14	-91	119	203	1776	141200	1776	74850554
517	243	3754	-15	-38	-46	-85	125	201	1777	141256	1777	74850558
506	222	3733	-13	-37	76	-85	125	201	1778	141359	1778	74850558
516	224	3719	-18	-40	66	-86	122	204	1779	141415	1779	74850560
529	227	3731	-15	-37	30	-86	122	204	1780	141518	1780	74850565
520	232	3765	-15	-36	-27	-87	125	207	1781	141574	1781	74850566
533	225	3744	-17	-37	3	-87	125	207	1782	141677	1782	74850579
519	243	3769	-17	-38	10	-86	118	208	1783	141733	1783	74850580
524	242	3743	-14	-38	39	-86	118	208	1784	141836	1784	74850587
528	216	3761	-14	-38	52	-93	123	205	1785	141892	1785	74850587
508	226	3739	-13	-39	8	-93	123	205	1786	141995	1786	74850587
511	210	3772	-18	-39	28	-83	119	207	1787	142051	1787	74850604
521	225	3769	-15	-38	18	-83	119	207	1788	142154	1788	74850604
511	214	3727	-14	-38	-3	-85	121	201	1789	142210	1789	74850611
517	225	3763	-12	-39	-3	-85	121	201	1790	142313	1790	74850612
522	214	3755	-16	-37	34	-90	120	198	1791	142369	1791	74850614
515	222	3741	-12	-37	49	-90	120	198	1792	142472	1792	74850629
523	232	3735	-13	-41	12	-88	122	204	1793	142528	1793	74850629
507	226	3753	-12	-38	25	-88	122	204	1794	142631	1794	74850634
514	235	3764	-15	-38	36	-85	123	205	1795	142687	1795	74850635
524	226	3723	-14	-38	11	-85	123	205	1796	142790	1796	74850638
518	233	3733	-13	-37	-65	-81	125	203	1797	142846	1797	74850654
514	224	3767	-16	-37	88	-81	125	203	1798	142949	1798	74850655
516	219	3755	-19	-37	-12	-90	122	202	1799	143005	1799	74850659
521	239	3751	-13	-38	-9	-90	122	202	1800	143108	1800	74850659
530	219	3761	-16	-39	13	-89	125	209	1801	143164	1801	74850663
522	225	3753	-15	-39	-22	-89	125	209	1802	143267	1802	74850708
512	204	3741	-16	-39	77	-93	125	207	1803	143323	1803	74850708
519	217	3766	-19	-37	-5	-93	125	207	1804	143426	1804	74850711
501	216	3741	-13	-38	17	-90	128	202	1805	143482	1805	74850712
516	229	3753	-13	-39	45	-90	128	202	1806	143585	1806	74850714
526	227	3762	-13	-39	14	-86	118	202	1807	143641	1807	74850715
515	228	3757	-18	-37	-44	-86	118	202	1808	143744	1808	74850715
517	220	3751	-15	-36	-27	-87	123	199	1809	143800	1809	74850730
499	229	3756	-16	-38	2	-87	123	199	1810	143903	1810	74850730
514	239	3717	-15	-35	-26	-86	126	202	1811	143959	1811	74850733
528	224	3747	-14	-35	20	-86	126	202	1812	144062	1812	74850734
505	218	3761	-14	-36	44	-87	123	203	1813	144118	1813	74850734
516	222	3746	-14	-33	56	-87	123	203	1814	144221	1814	74850738
513	208	3749	-16	-39	89	-94	128	206	1815	144277	1815	74850738
528	227	3758	-20	-35	-2	-94	128	206	1816	144380	1816	74850755
529	222	3762	-13	-37	6	-82	118	206	1817	144436	1817	74850755
517	228	3742	-16	-37	57	-82	118	206	1818	144539	1818	74850758
524	229	3761	-14	-37	-50	-92	122	204	1819	144595	1819	74850759
515	222	3757	-12	-40	63	-92	122	204	1820	144698	1820	74850760
532	225	3758	-10	-39	8	-89	129	199	1821	144754	1821	74850780
499	224	3748	-13	-38	11	-89	129	199	1822	144857	1822	74850781
511	210	3738	-13	-36	7	-85	119	207	1823	144913	1823	74850783
510	224	3727	-16	-37	57	-85	119	207	1824	145016	1824	74850784
512	223	3742	-15	-36	57	-88	128	196	1825	145072	1825	74850785
516	239	3744	-14	-36	59	-88	128	196	1826	145175	1826	74850804
506	218	3777	-13	-37	38	-91	123	205	1827	145231	1827	74850805
515	232	3745	-15	-38	18	-91	123	205	1828	145334	1828	74850807
533	223	3761	-13	-37	75	-90	116	202	1829	145390	1829	74850808
532	211	3763	-15	-38	46	-90	116	202	1830	145493	1830	74850808
530	217	3768	-13	-38	-30	-92	122	200	1831	145549	1831	74850829
510	227	3730	-15	-39	43	-92	122	200	1832	145652	1832	74850829
513	210	3730	-15	-39	-7	-83	125	205	1833	145708	1833	74850831
525	226	3748	-14	-38	23	-83	125	205	1834	145811	1834	74850833
507	228	3748	-19	-40	15	-88	122	204	1835	145867	1835	74850833
523	229	3756	-17	-37	37	-88	122	204	1836	145970	1836	74850840
510	228	3743	-17	-36	-1	-87	121	203	1837	146026	1837	74850841
509	223	3740	-15	-36	33	-87	121	203	1838	146129	1838	74850843
519	219	3777	-13	-36	-21	-89	125	203	1839	146185	1839	74850854
506	216	3752	-15	-38	71	-89	125	203	1840	146288	1840	74850855
514	234	3748	-15	-37	30	-90	118	202	1841	146344	1841	74850889
506	220	3764	-14	-39	12	-90	118	202	1842	146447	1842	74850889
506	211	3738	-17	-37	76	-87	123	203	1843	146503	1843	74850893
522	222	3726	-13	-36	5	-87	123	203	1844	146606	1844	74850893
502	242	3751	-13	-36	36	-87	129	205	1845	146662	1845	74850893
512	212	3721	-11	-37	-6	-87	129	205	1846	146765	1846	74850896
513	220	3739	-12	-38	18	-87	123	201	1847	146821	1847	74850897
516	231	3759	-12	-38	15	-87	123	201	1848	146924	1848	74850900
512	228	3737	-14	-37	62	-81	125	201	1849	146980	1849	74850900
500	241	3745	-12	-38	67	-81	125	201	1850	147083	1850	74850904
504	230	3756	-12	-37	31	-89	119	207	1851	147139	1851	74850924
501	217	3740	-15	-34	-12	-89	119	207	1852	147242	1852	74850924
502	229	3757	-17	-39	26	-82	120	206	1853	147298	1853	74850928
524	212	3759	-12	-39	37	-82	120	206	1854	147401	1854	74850928
522	216	3741	-15	-38	16	-90	124	200	1855	147457	1855	74850930
504	217	3747	-15	-38	-28	-90	124	200	1856	147560	1856	74850946
500	237	3751	-16	-37	-56	-93	127	203	1857	147616	1857	74850947
518	231	3733	-19	-35	-14	-93	127	203	1858	147719	1858	74850950
513	232	3759	-17	-39	15	-83	121	203	1859	147775	1859	74850950
520	213	3750	-14	-36	68	-83	121	203	1860	147878	1860	74850953
521	207	3747	-14	-38	-10	-83	121	199	1861	147934	1861	74850987
519	219	3754	-16	-37	-4	-83	121	199	1862	148037	1862	74850988
509	223	3752	-17	-34	56	-86	124	208	1863	148093	1863	74850991
521	219	3744	-15	-35	-12	-86	124	208	1864	148196	1864	74850991
509	230	3738	-18	-39	65	-88	130	200	1865	148252	1865	74850993
501	217	3753	-14	-37	-25	-88	130	200	1866	148355	1866	74850994
515	218	3755	-13	-36	9	-93	129	197	1867	148411	1867	74850995
525	202	3732	-13	-36	38	-93	129	197	1868	148514	1868	74850998
509	224	3754	-14	-37	-46	-91	119	205	1869	148570	1869	74850999
506	224	3731	-14	-38	80	-91	119	205	1870	148673	1870	74851012
525	207	3741	-14	-38	5	-86	124	200	1871	148729	1871	74851012
519	224	3713	-17	-40	13	-86	124	200	1872	148832	1872	74851013
517	215	3753	-15	-36	45	-86	124	196	1873	148888	1873	74851023
518	217	3764	-17	-36	41	-86	124	196	1874	148991	1874	74851023
519	222	3763	-12	-39	70	-83	117	209	1875	149047	1875	74851037
485	211	3730	-9	-37	-2	-83	117	209	1876	149150	1876	74851038
501	224	3741	-10	-37	39	-92	126	206	1877	149206	1877	74851040
520	223	3757	-11	-40	53	-92	126	206	1878	149309	1878	74851047
519	225	3748	-12	-37	69	-90	124	204	1880	149337	1879	74851061
524	220	3759	-13	-37	-59	-89	121	209	1881	149393	1880	74851062
501	232	3738	-13	-40	28	-89	121	209	1882	149496	1881	74851065
526	216	3765	-16	-39	46	-83	125	203	1883	149552	1882	74851065
518	221	3775	-17	-41	-13	-83	125	203	1884	149655	1883	74851066
517	231	3744	-15	-40	26	-91	121	203	1885	149711	1884	74851086
499	219	3737	-12	-38	4	-91	121	203	1886	149814	1885	74851087
490	223	3756	-11	-36	41	-83	123	207	1887	149870	1886	74851090
511	211	3732	-16	-40	57	-83	123	207	1888	149973	1887	74851090
506	234	3749	-15	-41	-28	-85	127	201	1889	150029	1888	74851094
525	214	3738	-14	-38	48	-85	127	201	1890	150132	1889	74851112
525	225	3732	-15	-39	26	-94	114	204	1891	150188	1890	74851112
523	227	3744	-16	-39	9	-94	114	204	1892	150291	1891	74851115
504	234	3740	-13	-37	9	-91	121	201	1893	150347	1892	74851116
522	229	3742	-14	-39	-8	-91	121	201	1894	150450	1893	74851136
532	229	3751	-14	-38	-3	-91	121	209	1895	150506	1894	74851137
523	228	3752	-13	-39	-8	-91	121	209	1896	150609	1895	74851139
515	226	3738	-15	-39	-22	-92	122	202	1897	150665	1896	74851140
520	220	3756	-12	-36	70	-92	122	202	1898	150768	1897	74851141
503	232	3737	-16	-38	30	-89	123	201	1899	150824	1898	74851161
515	232	3745	-15	-36	34	-89	123	201	1900	150927	1899	74851162
513	230	3744	-11	-37	7	-88	120	204	1901	150983	1900	74851165
500	229	3739	-14	-38	12	-88	120	204	1902	151086	1901	74851165
523	234	3751	-18	-34	40	-90	128	206	1903	151142	1902	74851168
518	223	3742	-14	-38	6	-90	128	206	1904	151245	1903	74851186
505	221	3762	-14	-36	62	-88	122	212	1905	151301	1904	74851188
529	220	3726	-12	-36	-22	-88	122	212	1906	151404	1905	74851190
510	232	3737	-13	-34	38	-86	122	204	1907	151460	1906	74851192
505	220	3747	-18	-38	11	-86	122	204	1908	151563	1907	74851193
509	238	3754	-17	-37	-23	-88	122	206	1909	151619	1908	74851194
519	227	3730	-15	-37	5	-88	122	206	1910	151723	1909	74851195
504	241	3743	-15	-37	1	-89	121	209	1911	151778	1910	74851211
528	224	3749	-18	-37	49	-89	121	209	1912	151881	1911	74851212
518	223	3758	-17	-36	84	-92	122	200	1913	151937	1912	74851219
521	238	3741	-18	-37	8	-92	122	200	1914	152040	1913	74851219
513	226	3735	-11	-36	28	-89	127	203	1915	152096	1914	74851222
512	227	3749	-13	-38	20	-89	127	203	1916	152199	1915	74851236
505	232	3750	-16	-37	31	-93	121	207	1917	152255	1916	74851237
524	206	3751	-15	-37	57	-93	121	207	1918	152358	1917	74851243
526	219	3735	-12	-37	19	-92	122	204	1919	152414	1918	74851266
512	240	3735	-16	-36	51	-92	122	204	1920	152517	1919	74851268
516	223	3776	-13	-38	33	-86	122	210	1921	152573	1920	74851268
505	224	3777	-13	-38	-51	-86	122	210	1922	152676	1921	74851269
522	228	3749	-14	-39	5	-96	124	198	1923	152732	1922	74851269
507	231	3744	-13	-38	-17	-96	124	198	1924	152835	1923	74851270
510	226	3750	-13	-39	16	-89	127	197	1925	152891	1924	74851289
516	221	3741	-16	-38	31	-89	127	197	1926	152994	1925	74851289
522	205	3767	-16	-37	26	-91	123	207	1927	153050	1926	74851293
519	223	3774	-13	-39	44	-91	123	207	1928	153153	1927	74851293
516	211	3725	-14	-36	13	-93	121	205	1929	153209	1928	74851295
517	211	3758	-13	-38	-41	-93	121	205	1930	153312	1929	74851313
520	224	3759	-15	-39	-9	-86	116	204	1931	153368	1930	74851314
525	240	3743	-14	-39	47	-86	116	204	1932	153471	1931	74851341
516	227	3743	-9	-37	-16	-84	124	202	1933	153527	1932	74851342
501	232	3749	-13	-39	-30	-84	124	202	1934	153630	1933	74851344
510	223	3708	-15	-38	66	-85	123	201	1935	153686	1934	74851345
507	237	3721	-12	-36	-10	-85	123	201	1936	153789	1935	74851345
514	215	3745	-14	-36	43	-86	118	204	1937	153845	1936	74851363
521	212	3752	-11	-38	6	-86	118	204	1938	153948	1937	74851363
515	225	3748	-14	-36	-50	-84	130	204	1939	154004	1938	74851366
512	222	3762	-18	-36	87	-84	130	204	1940	154107	1939	74851368
505	222	3736	-14	-37	58	-89	125	201	1941	154163	1940	74851369
504	214	3774	-18	-36	44	-89	125	201	1942	154266	1941	74851370
521	223	3771	-14	-39	-1	-90	118	200	1943	154322	1942	74851371
539	210	3757	-14	-38	13	-90	118	200	1944	154425	1943	74851388
512	230	3732	-11	-38	24	-88	118	204	1945	154481	1944	74851388
518	241	3758	-12	-39	4	-88	118	204	1946	154584	1945	74851391
514	212	3773	-16	-38	22	-86	118	204	1947	154640	1946	74851392
521	222	3748	-16	-37	24	-86	118	204	1948	154743	1947	74851394
517	224	3758	-17	-38	15	-88	120	202	1949	154799	1948	74851395
508	236	3764	-14	-36	56	-88	120	202	1950	154902	1949	74851395
528	224	3748	-20	-39	42	-91	119	203	1951	154958	1950	74851413
509	228	3737	-17	-41	-19	-91	119	203	1952	155061	1951	74851413
502	223	3736	-14	-39	55	-85	125	209	1953	155117	1952	74851416
503	214	3757	-16	-38	41	-85	125	209	1954	155220	1953	74851416
530	215	3753	-15	-39	37	-92	122	198	1955	155276	1954	74851417
514	211	3765	-14	-39	23	-92	122	198	1956	155379	1955	74851438
523	233	3761	-15	-39	26	-87	119	205	1957	155435	1956	74851438
526	238	3780	-17	-38	23	-87	119	205	1958	155538	1957	74851441
532	230	3756	-16	-35	17	-89	121	205	1959	155594	1958	74851442
520	221	3735	-14	-37	76	-89	121	205	1960	155697	1959	74851444
518	223	3768	-12	-36	12	-87	127	203	1961	155753	1960	74851461
518	229	3740	-13	-38	58	-87	127	203	1962	155856	1961	74851462
517	223	3751	-15	-38	56	-87	123	209	1963	155912	1962	74851465
524	226	3740	-15	-38	-7	-87	123	209	1964	156015	1963	74851465
511	221	3752	-17	-37	13	-88	124	202	1965	156071	1964	74851486
532	223	3778	-18	-37	-19	-88	124	202	1966	156174	1965	74851486
511	226	3757	-14	-36	78	-86	118	206	1967	156230	1966	74851489
508	233	3754	-14	-37	70	-86	118	206	1968	156333	1967	74851490
504	223	3761	-15	-37	-13	-91	127	207	1969	156389	1968	74851490
498	230	3737	-14	-39	38	-91	127	207	1970	156492	1969	74851498
507	215	3731	-14	-41	-8	-90	122	202	1971	156548	1970	74851498
509	229	3744	-15	-38	44	-90	122	202	1972	156651	1971	74851511
506	225	3734	-16	-41	37	-83	119	205	1973	156707	1972	74851512
515	232	3752	-16	-41	3	-83	119	205	1974	156810	1973	74851514
517	214	3736	-17	-39	21	-88	128	198	1975	156866	1974	74851522
498	227	3747	-14	-36	6	-88	128	198	1976	156969	1975	74851522
501	221	3733	-14	-40	0	-87	117	203	1977	157025	1976	74851537
521	224	3753	-14	-39	73	-87	117	203	1978	157128	1977	74851537
517	229	3746	-15	-40	45	-87	123	211	1979	157184	1978	74851541
519	214	3754	-14	-37	20	-87	123	211	1980	157287	1979	74851542
518	215	3723	-16	-37	11	-89	123	199	1981	157343	1980	74851542
506	210	3754	-18	-38	36	-89	123	199	1982	157446	1981	74851561
526	229	3760	-14	-39	15	-91	121	203	1983	157502	1982	74851562
518	241	3766	-17	-38	7	-91	121	203	1984	157605	1983	74851565
501	218	3769	-17	-39	29	-89	123	203	1985	157661	1984	74851565
509	230	3761	-15	-37	44	-89	123	203	1986	157764	1985	74851569
510	226	3743	-16	-38	13	-90	126	202	1987	157820	1986	74851586
525	225	3737	-15	-36	23	-90	126	202	1988	157923	1987	74851587
516	225	3716	-16	-37	-7	-93	121	209	1989	157979	1988	74851590
509	233	3752	-18	-36	30	-93	121	209	1990	158082	1989	74851590
