Accl X	Accl Y	Accl Z	Gyro X	Gyro Y	Gyro Z	Mag X	Mag Y	Mag Z	RPkt#	Rtime	LPkt#	Ltime
53	295	3852	-39	-25	30	-9	67	81	0	0	0	74841855
42	295	3871	-42	-22	30	-9	67	81	1	100	1	74841859
29	288	3864	-39	-21	27	-9	65	87	2	153	2	74841859
32	293	3888	-39	-25	28	-9	65	87	3	253	3	74841860
53	287	3845	-36	-22	29	-4	66	82	4	306	4	74841880
31	288	3883	-41	-19	26	-4	66	82	5	406	5	74841880
46	285	3871	-37	-21	27	-3	69	89	6	459	6	74841884
52	296	3869	-38	-24	27	-3	69	89	7	559	7	74841884
41	296	3874	-38	-23	25	-4	66	82	8	612	8	74841886
37	273	3871	-38	-23	27	-4	66	82	9	712	9	74841905
42	277	3874	-39	-22	29	0	64	80	10	765	10	74841906
49	279	3854	-41	-25	27	0	64	80	11	865	11	74841909
40	292	3864	-40	-24	29	-3	67	89	12	917	12	74841909
44	290	3873	-40	-21	29	-3	67	89	13	1017	13	74841912
38	294	3883	-38	-25	28	-6	74	80	14	1070	14	74841930
46	291	3880	-38	-20	24	-6	74	80	15	1170	15	74841944
37	288	3862	-40	-23	28	-4	66	88	16	1223	16	74841946
49	295	3873	-43	-22	29	-4	66	88	17	1323	17	74841947
33	276	3868	-40	-23	26	-2	68	82	18	1376	18	74841948
29	290	3861	-41	-23	28	-2	68	82	19	1476	19	74841954
32	307	3856	-40	-24	27	-7	65	85	20	1529	20	74841955
29	291	3880	-38	-23	25	-7	65	85	21	1629	21	74841958
40	286	3882	-40	-25	27	-1	63	81	22	1682	22	74841958
46	288	3867	-39	-24	28	-1	63	81	23	1782	23	74841960
58	278	3886	-38	-25	27	-7	61	83	24	1835	24	74841979
48	279	3871	-40	-26	27	-7	61	83	25	1935	25	74841979
51	280	3864	-38	-22	29	0	64	82	26	1988	26	74841983
52	296	3878	-38	-23	27	0	64	82	27	2088	27	74841984
41	284	3860	-39	-25	27	-9	69	85	28	2141	28	74841985
59	272	3865	-40	-24	28	-9	69	85	29	2241	29	74841990
56	283	3890	-41	-24	26	-2	68	86	30	2294	30	74841992
26	284	3862	-40	-24	29	-2	68	86	31	2394	31	74842004
29	269	3861	-39	-22	31	-8	66	82	32	2447	32	74842004
36	285	3846	-38	-24	27	-8	66	82	33	2547	33	74842014
57	295	3880	-39	-23	27	-3	67	79	34	2600	34	74842014
50	292	3889	-40	-23	28	-3	67	79	35	2700	35	74842029
39	282	3854	-39	-22	26	-2	66	88	36	2753	36	74842030
39	304	3876	-42	-20	28	-2	66	88	37	2853	37	74842031
27	287	3867	-39	-22	27	-7	67	81	38	2906	38	74842039
50	277	3853	-40	-24	25	-7	67	81	39	3006	39	74842039
44	272	3866	-38	-24	26	1	67	89	40	3059	40	74842041
45	277	3856	-40	-25	29	1	67	89	41	3159	41	74842054
34	281	3876	-40	-24	28	-2	66	84	42	3212	42	74842056
51	275	3856	-40	-21	28	-2	66	84	43	3312	43	74842064
55	302	3877	-37	-24	28	0	66	88	44	3365	44	74842065
42	286	3868	-39	-24	28	0	66	88	45	3465	45	74842067
52	283	3862	-39	-25	26	-4	62	82	46	3518	46	74842079
43	283	3842	-40	-23	28	-4	62	82	47	3618	47	74842080
54	272	3879	-39	-24	30	1	71	87	48	3671	48	74842088
60	280	3873	-40	-22	25	1	71	87	49	3771	49	74842088
33	299	3873	-38	-26	28	-2	74	84	50	3824	50	74842104
53	303	3864	-39	-21	29	-2	74	84	51	3924	51	74842111
53	285	3879	-35	-23	25	4	64	84	52	3977	52	74842113
53	285	3871	-39	-22	28	4	64	84	53	4077	53	74842113
32	290	3882	-40	-22	30	-4	66	80	54	4130	54	74842114
46	288	3860	-41	-21	27	-4	66	80	55	4230	55	74842129
42	297	3866	-38	-24	26	-8	62	94	56	4283	56	74842129
51	291	3873	-39	-24	30	-8	62	94	57	4383	57	74842132
37	281	3857	-39	-25	28	-3	63	77	58	4436	58	74842139
29	279	3884	-39	-26	27	-3	63	77	59	4536	59	74842139
42	315	3884	-37	-24	28	-3	69	85	60	4589	60	74842155
34	284	3866	-39	-22	27	-3	69	85	61	4689	61	74842156
31	290	3874	-38	-24	27	-2	68	84	62	4742	62	74842158
40	281	3871	-39	-24	29	-2	68	84	63	4842	63	74842160
37	290	3859	-39	-23	29	-2	68	82	64	4895	64	74842161
58	299	3877	-41	-23	28	-2	68	82	65	4995	65	74842180
36	291	3852	-41	-24	33	1	61	85	66	5048	66	74842181
37	286	3873	-42	-22	32	1	61	85	67	5148	67	74842183
46	268	3877	-39	-24	29	2	64	84	68	5201	68	74842185
58	290	3868	-40	-22	27	2	64	84	69	5301	69	74842186
38	283	3853	-38	-24	27	-6	70	80	70	5354	70	74842213
56	290	3874	-37	-22	28	-6	70	80	71	5454	71	74842215
47	287	3865	-41	-24	28	3	65	87	72	5507	72	74842216
47	284	3871	-39	-24	29	3	65	87	73	5607	73	74842217
56	284	3894	-40	-22	25	-5	67	85	74	5660	74	74842218
31	288	3873	-41	-24	27	-5	67	85	75	5760	75	74842230
30	283	3877	-39	-24	29	-1	63	85	76	5813	76	74842231
25	293	3863	-40	-23	27	-1	63	85	77	5913	77	74842233
40	285	3869	-39	-22	26	-1	65	81	78	5966	78	74842234
44	284	3872	-41	-22	28	-1	65	81	79	6066	79	74842235
33	287	3903	-39	-24	28	-6	66	84	80	6119	80	74842254
39	281	3873	-38	-22	26	-6	66	84	81	6219	81	74842254
44	280	3868	-40	-22	28	-3	63	93	82	6271	82	74842258
31	281	3875	-37	-23	27	-3	63	93	83	6372	83	74842258
45	278	3856	-40	-23	26	-5	63	83	84	6425	84	74842260
48	298	3852	-41	-23	27	-5	63	83	85	6525	85	74842279
46	276	3865	-39	-25	26	-2	66	88	86	6578	86	74842279
35	274	3870	-40	-21	24	-2	66	88	87	6678	87	74842282
47	291	3866	-36	-23	28	0	66	86	88	6731	88	74842283
42	288	3865	-38	-23	30	0	66	86	89	6831	89	74842285
33	278	3888	-39	-24	24	-5	71	83	90	6884	90	74842304
28	293	3857	-42	-24	28	-5	71	83	91	6984	91	74842304
39	275	3875	-38	-22	29	-2	66	92	92	7037	92	74842308
39	289	3893	-40	-21	27	-2	66	92	93	7137	93	74842308
44	281	3881	-39	-22	27	-2	64	84	94	7190	94	74842310
30	285	3860	-38	-23	29	-2	64	84	95	7290	95	74842329
56	268	3864	-37	-24	25	0	58	86	96	7343	96	74842329
42	299	3848	-39	-23	28	0	58	86	97	7443	97	74842332
53	290	3871	-38	-26	30	-1	65	83	98	7496	98	74842333
54	307	3862	-38	-22	28	-1	65	83	99	7596	99	74842343
42	287	3868	-40	-24	27	-3	69	81	100	7649	100	74842354
30	275	3871	-38	-22	30	-3	69	81	101	7749	101	74842354
60	306	3847	-38	-22	27	1	63	91	102	7802	102	74842383
48	290	3870	-41	-22	25	1	63	91	103	7902	103	74842383
44	298	3883	-41	-25	27	-10	70	76	104	7955	104	74842385
44	283	3868	-43	-25	27	-10	70	76	105	8055	105	74842386
43	285	3860	-39	-27	27	-4	60	82	106	8108	106	74842387
37	281	3872	-38	-24	27	-4	60	82	107	8208	107	74842390
46	282	3862	-39	-23	28	-1	69	85	108	8261	108	74842392
34	295	3869	-39	-26	27	-1	69	85	109	8361	109	74842393
51	305	3871	-39	-25	28	-5	69	79	110	8414	110	74842405
56	293	3886	-41	-23	29	-5	69	79	111	8514	111	74842406
42	289	3880	-39	-25	30	-2	64	90	112	8567	112	74842409
42	285	3879	-37	-21	29	-2	64	90	113	8667	113	74842409
43	293	3863	-39	-22	32	-7	69	77	114	8720	114	74842414
37	310	3865	-40	-23	27	-7	69	77	115	8820	115	74842415
60	305	3890	-38	-25	28	-7	67	83	116	8873	116	74842430
44	270	3853	-40	-23	30	-7	67	83	117	8973	117	74842431
41	298	3892	-38	-25	29	5	65	83	118	9026	118	74842432
30	291	3870	-38	-22	29	5	65	83	119	9126	119	74842440
28	289	3868	-39	-23	30	-2	70	84	120	9179	120	74842440
42	268	3861	-41	-22	29	-2	70	84	121	9279	121	74842454
30	284	3867	-39	-21	25	-4	66	86	122	9332	122	74842455
44	274	3890	-40	-24	27	-4	66	86	123	9432	123	74842455
45	292	3906	-40	-24	26	-2	68	82	124	9485	124	74842465
41	297	3867	-38	-23	26	-2	68	82	125	9585	125	74842465
59	314	3871	-39	-22	30	-8	64	80	126	9638	126	74842468
49	283	3859	-41	-25	27	-8	64	80	127	9738	127	74842481
36	290	3859	-40	-24	25	-2	70	82	128	9791	128	74842481
44	292	3845	-38	-24	30	-2	70	82	129	9891	129	74842489
35	311	3876	-39	-25	28	-1	63	87	130	9944	130	74842490
39	297	3858	-40	-24	25	-1	63	87	131	10044	131	74842506
33	277	3879	-38	-24	31	-4	62	88	132	10097	132	74842508
58	290	3893	-38	-23	31	-4	62	88	133	10197	133	74842508
38	293	3876	-37	-23	26	0	68	84	134	10250	134	74842512
49	313	3888	-39	-22	30	0	68	84	135	10350	135	74842513
45	289	3863	-38	-23	30	-6	68	86	136	10403	136	74842528
44	295	3882	-39	-21	28	-6	68	86	137	10503	137	74842529
36	290	3884	-38	-21	26	-1	65	85	138	10556	138	74842529
47	298	3865	-43	-23	29	-1	65	85	139	10656	139	74842538
47	279	3858	-42	-25	28	1	63	87	140	10709	140	74842538
55	284	3882	-39	-24	30	1	63	87	141	10809	141	74842549
43	280	3880	-38	-23	27	-2	66	84	142	10862	142	74842549
34	288	3862	-40	-26	27	-2	66	84	143	10962	143	74842550
41	281	3859	-38	-26	26	-1	65	85	144	11015	144	74842569
44	295	3861	-40	-23	31	-1	65	85	145	11115	145	74842569
49	288	3882	-41	-25	26	2	68	82	146	11168	146	74842573
47	287	3851	-41	-25	24	2	68	82	147	11268	147	74842573
43	282	3851	-40	-25	25	-4	66	84	148	11321	148	74842576
58	277	3890	-41	-23	28	-4	66	84	149	11421	149	74842591
49	270	3866	-39	-22	26	-6	60	86	150	11474	150	74842591
37	289	3867	-39	-22	27	-6	60	86	151	11574	151	74842599
36	275	3884	-38	-26	29	-5	65	83	152	11627	152	74842599
54	281	3849	-39	-24	27	-5	65	83	153	11727	153	74842601
38	289	3856	-39	-26	30	1	69	85	154	11780	154	74842616
27	299	3871	-39	-24	29	1	69	85	155	11880	155	74842617
41	302	3865	-37	-22	26	-4	66	84	156	11933	156	74842621
31	294	3840	-39	-21	27	-4	66	84	157	12033	157	74842621
36	285	3862	-40	-22	27	-4	68	80	158	12086	158	74842625
31	285	3847	-42	-22	26	-4	68	80	159	12186	159	74842640
35	280	3847	-40	-25	25	-6	68	82	160	12239	160	74842640
32	289	3869	-40	-24	31	-6	68	82	161	12339	161	74842648
56	294	3855	-40	-20	29	-2	66	78	162	12392	162	74842648
46	288	3857	-40	-23	27	-2	66	78	163	12492	163	74842651
38	287	3875	-40	-24	29	0	56	84	164	12545	164	74842665
50	290	3867	-38	-25	28	0	56	84	165	12645	165	74842666
47	287	3883	-38	-21	26	-8	68	84	166	12698	166	74842672
28	307	3867	-40	-23	28	-8	68	84	167	12798	167	74842673
43	289	3880	-36	-24	29	-2	68	86	168	12851	168	74842675
52	290	3882	-40	-21	26	-2	68	86	169	12951	169	74842690
33	289	3878	-40	-23	29	-8	66	88	170	13004	170	74842691
49	288	3876	-38	-23	27	-8	66	88	171	13104	171	74842695
45	285	3880	-39	-26	27	-4	72	84	172	13157	172	74842696
42	277	3869	-36	-22	27	-4	72	84	173	13257	173	74842715
43	286	3884	-38	-24	30	1	69	87	174	13310	174	74842715
53	290	3870	-41	-22	27	1	69	87	175	13410	175	74842718
24	286	3852	-39	-24	27	-2	66	84	176	13463	176	74842720
35	292	3861	-39	-24	30	-2	66	84	177	13563	177	74842720
31	274	3871	-37	-25	26	-8	68	82	178	13616	178	74842740
49	272	3892	-39	-23	27	-8	68	82	179	13716	179	74842740
48	292	3874	-37	-27	29	-2	64	88	180	13769	180	74842744
27	284	3873	-37	-24	26	-2	64	88	181	13869	181	74842745
39	286	3863	-39	-22	26	0	68	82	182	13922	182	74842745
44	295	3856	-39	-19	29	0	68	82	183	14022	183	74842765
34	273	3854	-39	-23	27	-3	65	81	184	14075	184	74842765
51	290	3856	-37	-25	26	-3	65	81	185	14175	185	74842768
44	281	3873	-40	-21	27	-5	69	91	186	14228	186	74842769
35	287	3874	-39	-19	27	-5	69	91	187	14328	187	74842769
37	294	3863	-40	-23	25	-5	67	75	188	14381	188	74842790
62	292	3867	-41	-23	30	-5	67	75	189	14481	189	74842790
42	290	3889	-38	-24	28	-1	65	87	190	14534	190	74842792
65	272	3887	-39	-23	27	-1	65	87	191	14634	191	74842794
37	288	3857	-38	-25	29	-1	71	83	192	14687	192	74842794
48	303	3871	-40	-23	27	-1	71	83	193	14787	193	74842815
32	288	3856	-38	-24	25	-4	60	88	194	14840	194	74842815
39	283	3855	-39	-25	27	-4	60	88	195	14940	195	74842819
41	283	3880	-38	-24	28	-3	71	81	196	14993	196	74842819
41	287	3864	-41	-23	27	-3	71	81	197	15093	197	74842821
50	280	3891	-40	-23	28	-1	67	81	198	15146	198	74842842
43	281	3866	-39	-24	28	-1	67	81	199	15246	199	74842843
35	281	3856	-39	-23	28	-1	65	83	200	15299	200	74842850
30	289	3874	-39	-21	26	-1	65	83	201	15399	201	74842850
43	273	3854	-37	-21	29	0	70	80	202	15452	202	74842852
25	298	3870	-41	-25	28	0	70	80	203	15552	203	74842866
47	303	3873	-38	-23	27	-1	61	85	204	15605	204	74842866
48	289	3853	-40	-23	29	-1	61	85	205	15705	205	74842870
42	275	3852	-40	-21	28	-3	59	87	206	15758	206	74842870
54	289	3861	-40	-22	24	-3	59	87	207	15858	207	74842872
34	280	3844	-40	-21	28	-10	66	82	208	15911	208	74842891
35	292	3853	-39	-22	29	-10	66	82	209	16011	209	74842891
33	292	3859	-42	-25	29	-4	64	86	210	16064	210	74842895
37	294	3870	-40	-24	29	-4	64	86	211	16164	211	74842895
26	286	3871	-40	-22	29	-4	74	82	212	16217	212	74842897
40	285	3851	-41	-21	27	-4	74	82	213	16317	213	74842916
37	284	3886	-40	-22	29	-5	69	85	214	16370	214	74842917
45	290	3883	-40	-25	28	-5	69	85	215	16470	215	74842920
53	279	3883	-39	-22	25	-7	61	87	216	16523	216	74842920
32	284	3872	-42	-23	28	-7	61	87	217	16623	217	74842922
41	293	3876	-38	-21	30	-3	63	81	218	16676	218	74842924
36	297	3868	-42	-24	26	-3	63	81	219	16776	219	74842924
58	289	3872	-40	-25	25	-6	64	84	220	16829	220	74842942
43	291	3857	-40	-23	29	-6	64	84	221	16929	221	74842943
32	288	3855	-37	-21	27	-2	70	82	222	16982	222	74842949
56	285	3868	-40	-23	27	-2	70	82	223	17082	223	74842949
34	286	3887	-38	-25	29	-1	67	87	224	17135	224	74842950
47	281	3878	-38	-23	26	-1	67	87	225	17235	225	74842966
45	276	3878	-40	-24	24	-5	65	85	226	17288	226	74842967
53	292	3882	-40	-22	30	-5	65	85	227	17388	227	74842974
48	302	3885	-37	-26	30	2	66	86	228	17441	228	74842974
36	299	3855	-38	-24	29	2	66	86	229	17541	229	74842990
49	302	3867	-40	-23	29	-1	67	87	230	17594	230	74842991
37	297	3877	-39	-26	28	-1	67	87	231	17694	231	74842991
42	285	3857	-38	-23	26	-2	62	84	232	17747	232	74843021
44	296	3868	-38	-22	27	-2	62	84	233	17847	233	74843021
43	294	3870	-38	-23	30	-5	71	83	234	17900	234	74843024
36	292	3867	-38	-25	27	-5	71	83	235	18000	235	74843025
49	289	3864	-42	-24	28	-3	67	85	236	18053	236	74843025
39	271	3856	-43	-25	31	-3	67	85	237	18153	237	74843041
33	264	3868	-38	-25	27	0	66	82	238	18206	238	74843041
30	295	3865	-41	-23	28	0	66	82	239	18306	239	74843044
33	291	3888	-41	-25	30	-3	61	81	240	18359	240	74843045
32	285	3864	-40	-23	25	-3	61	81	241	18459	241	74843045
35	282	3889	-38	-22	28	-4	72	86	242	18512	242	74843048
34	288	3865	-41	-24	30	-4	72	86	243	18612	243	74843049
47	281	3867	-36	-27	24	-8	70	82	244	18665	244	74843051
59	273	3849	-39	-26	25	-8	70	82	245	18765	245	74843066
46	278	3855	-37	-23	29	-1	65	85	246	18818	246	74843067
52	292	3850	-43	-21	28	-1	65	85	247	18918	247	74843071
25	284	3858	-40	-22	26	-6	68	82	248	18971	248	74843072
36	293	3849	-40	-21	28	-6	68	82	249	19071	249	74843090
53	279	3858	-39	-23	27	1	67	87	250	19124	250	74843090
28	284	3827	-40	-23	26	1	67	87	251	19224	251	74843090
52	308	3886	-40	-22	30	-2	64	84	252	19277	252	74843097
53	295	3850	-39	-23	31	-2	64	84	253	19377	253	74843098
33	293	3884	-36	-22	28	-7	65	85	254	19430	254	74843115
56	280	3879	-38	-23	29	-7	65	85	255	19530	255	74843115
33	289	3883	-40	-24	28	-5	69	81	256	19583	256	74843117
44	285	3877	-43	-23	25	-5	69	81	257	19683	257	74843120
52	283	3887	-39	-24	26	-1	69	85	258	19736	258	74843120
47	299	3852	-38	-24	27	-1	69	85	259	19836	259	74843140
61	284	3880	-38	-22	25	3	65	87	260	19889	260	74843140
40	278	3876	-42	-22	29	3	65	87	261	19989	261	74843142
59	277	3858	-39	-23	28	0	66	80	262	20042	262	74843145
41	291	3869	-38	-23	28	0	66	80	263	20142	263	74843145
38	285	3867	-39	-21	27	-4	66	84	264	20195	264	74843165
28	277	3881	-39	-24	27	-4	66	84	265	20295	265	74843165
46	275	3882	-36	-22	25	5	69	87	266	20348	266	74843167
41	290	3871	-39	-25	28	5	69	87	267	20448	267	74843169
39	281	3871	-39	-24	29	-7	69	85	268	20501	268	74843169
40	295	3866	-38	-24	27	-7	69	85	269	20601	269	74843190
38	301	3871	-37	-23	24	4	60	88	270	20654	270	74843190
28	298	3884	-40	-23	28	4	60	88	271	20754	271	74843192
39	280	3874	-39	-23	28	-4	64	84	272	20807	272	74843194
36	284	3876	-41	-24	26	-4	64	84	273	20907	273	74843194
46	297	3848	-38	-22	28	-3	67	81	274	20960	274	74843217
41	290	3867	-41	-23	29	-3	67	81	275	21060	275	74843217
45	289	3853	-39	-25	25	-2	72	92	276	21113	276	74843220
47	284	3873	-39	-25	28	-2	72	92	277	21213	277	74843221
54	301	3864	-37	-23	28	-7	67	79	278	21266	278	74843222
42	295	3871	-37	-23	27	-7	67	79	279	21366	279	74843242
49	288	3870	-37	-24	26	-4	68	82	280	21419	280	74843243
38	289	3867	-37	-22	30	-4	68	82	281	21519	281	74843245
40	294	3843	-40	-25	28	-7	63	81	282	21572	282	74843246
54	294	3836	-40	-22	25	-7	63	81	283	21672	283	74843246
29	282	3876	-37	-23	27	-2	60	86	284	21725	284	74843265
32	297	3858	-36	-23	28	-2	60	86	285	21825	285	74843265
44	293	3864	-39	-25	28	-4	66	86	286	21878	286	74843268
35	282	3873	-38	-22	30	-4	66	86	287	21978	287	74843269
48	295	3842	-37	-24	28	-8	72	82	288	22031	288	74843269
25	281	3872	-38	-27	25	-8	72	82	289	22131	289	74843290
35	299	3872	-38	-25	27	-5	59	89	290	22184	290	74843290
38	279	3881	-40	-24	29	-5	59	89	291	22284	291	74843294
52	284	3860	-37	-22	26	-1	65	83	292	22337	292	74843294
28	300	3872	-40	-22	29	-1	65	83	293	22437	293	74843296
48	290	3875	-39	-22	27	-3	69	87	294	22490	294	74843315
22	288	3872	-39	-21	26	-3	69	87	295	22590	295	74843315
50	296	3879	-36	-22	30	-4	70	82	296	22643	296	74843319
34	289	3861	-38	-22	28	-4	70	82	297	22743	297	74843319
30	284	3872	-38	-24	28	-3	65	83	298	22796	298	74843321
40	286	3871	-38	-23	30	-3	65	83	299	22896	299	74843342
52	297	3850	-39	-25	28	-6	62	82	300	22949	300	74843342
34	301	3871	-41	-23	27	-6	62	82	301	23049	301	74843344
48	291	3864	-40	-25	27	-7	71	87	302	23102	302	74843344
43	304	3865	-40	-28	27	-7	71	87	303	23202	303	74843346
46	285	3864	-40	-24	29	-2	64	86	304	23255	304	74843365
44	279	3869	-40	-22	27	-2	64	86	305	23355	305	74843365
40	279	3876	-41	-21	27	1	67	83	306	23408	306	74843368
48	301	3871	-39	-22	28	1	67	83	307	23508	307	74843369
43	285	3887	-39	-23	26	-2	66	80	308	23561	308	74843371
29	290	3881	-41	-22	29	-2	66	80	309	23661	309	74843376
29	291	3853	-40	-23	28	-5	67	85	310	23714	310	74843376
51	285	3859	-42	-24	27	-5	67	85	311	23814	311	74843390
47	291	3864	-39	-25	29	3	65	85	312	23867	312	74843390
36	303	3857	-40	-23	26	3	65	85	313	23967	313	74843400
37	277	3859	-36	-23	27	-1	67	87	314	24020	314	74843400
50	290	3864	-43	-22	28	-1	67	87	315	24120	315	74843415
43	302	3867	-39	-22	27	-3	67	87	316	24173	316	74843418
64	292	3870	-39	-26	23	-3	67	87	317	24273	317	74843425
44	287	3872	-37	-24	27	-4	70	84	318	24326	318	74843427
40	287	3877	-39	-23	31	-4	70	84	319	24426	319	74843431
41	294	3878	-37	-23	27	-1	63	85	320	24479	320	74843432
50	288	3878	-40	-20	27	-1	63	85	321	24579	321	74843440
31	288	3875	-39	-24	31	0	66	88	322	24632	322	74843440
47	280	3865	-39	-22	26	0	66	88	323	24732	323	74843449
39	273	3861	-40	-24	26	-7	65	81	324	24785	324	74843449
41	290	3865	-41	-24	26	-7	65	81	325	24885	325	74843467
32	286	3858	-39	-24	25	0	62	84	326	24938	326	74843468
35	282	3871	-39	-24	26	0	62	84	327	25038	327	74843470
44	283	3874	-42	-25	29	-5	67	83	328	25091	328	74843472
45	290	3870	-38	-25	29	-5	67	83	329	25191	329	74843474
57	279	3872	-39	-26	28	-3	69	85	330	25244	330	74843476
43	284	3900	-40	-27	29	-3	69	85	331	25344	331	74843492
38	283	3847	-38	-25	27	-6	66	82	332	25397	332	74843492
42	298	3859	-37	-24	26	-6	66	82	333	25497	333	74843497
48	297	3867	-40	-25	29	-2	68	84	334	25550	334	74843497
45	295	3885	-40	-23	28	-2	68	84	335	25650	335	74843501
25	288	3850	-39	-24	26	-2	70	86	336	25703	336	74843517
34	287	3880	-42	-22	30	-2	70	86	337	25803	337	74843517
48	293	3846	-39	-24	29	-1	69	81	338	25856	338	74843521
19	281	3874	-39	-24	26	-1	69	81	339	25956	339	74843521
31	302	3869	-39	-24	28	-2	72	82	340	26009	340	74843524
43	290	3859	-40	-24	29	-2	72	82	341	26109	341	74843541
43	269	3884	-40	-23	25	0	68	88	342	26162	342	74843541
34	277	3874	-41	-21	28	0	68	88	343	26262	343	74843546
42	289	3877	-39	-23	28	-11	71	81	344	26315	344	74843547
45	282	3865	-39	-25	29	-11	71	81	345	26415	345	74843566
59	292	3877	-38	-24	27	-1	65	89	346	26468	346	74843566
38	283	3851	-41	-22	28	-1	65	89	347	26568	347	74843568
46	297	3877	-42	-23	29	-1	71	85	348	26621	348	74843571
51	295	3862	-40	-24	29	-1	71	85	349	26721	349	74843571
51	286	3869	-38	-24	30	-2	70	86	350	26774	350	74843591
44	274	3861	-40	-22	28	-2	70	86	351	26874	351	74843591
41	279	3878	-37	-25	26	0	62	86	352	26927	352	74843593
56	283	3880	-38	-23	30	0	62	86	353	27027	353	74843595
45	286	3838	-43	-23	28	-3	67	85	354	27080	354	74843595
33	295	3891	-39	-23	25	-3	67	85	355	27180	355	74843616
49	286	3904	-39	-25	29	-1	65	83	356	27233	356	74843617
35	291	3869	-40	-23	29	-1	65	83	357	27333	357	74843619
40	288	3871	-36	-24	28	0	62	88	358	27386	358	74843620
41	279	3875	-36	-22	29	0	62	88	359	27486	359	74843620
52	278	3871	-37	-23	31	-3	67	85	360	27539	360	74843665
31	279	3867	-42	-23	28	-3	67	85	361	27639	361	74843665
46	285	3864	-37	-23	31	-8	66	86	362	27692	362	74843667
55	282	3853	-40	-23	28	-8	66	86	363	27792	363	74843668
33	291	3888	-40	-21	26	-1	65	81	364	27845	364	74843669
40	284	3858	-39	-20	29	-1	65	81	365	27945	365	74843672
48	279	3888	-39	-20	30	3	69	81	366	27998	366	74843673
46	283	3882	-41	-24	28	3	69	81	367	28098	367	74843675
36	281	3861	-41	-25	28	-1	63	85	368	28151	368	74843676
32	284	3862	-39	-22	29	-1	63	85	369	28251	369	74843676
45	291	3863	-37	-24	28	0	70	78	370	28304	370	74843692
46	299	3875	-40	-24	27	0	70	78	371	28404	371	74843693
43	280	3884	-39	-24	30	-5	65	79	372	28457	372	74843695
38	291	3893	-40	-21	28	-5	65	79	373	28557	373	74843696
32	307	3859	-41	-22	28	-4	70	84	374	28610	374	74843696
32	297	3850	-41	-25	29	-4	70	84	375	28710	375	74843715
35	293	3861	-38	-22	28	-5	63	87	376	28763	376	74843715
46	291	3848	-41	-22	27	-5	63	87	377	28863	377	74843718
38	282	3868	-40	-23	28	-2	68	80	378	28916	378	74843719
49	268	3873	-41	-23	28	-2	68	80	379	29016	379	74843719
50	289	3888	-40	-23	28	-8	64	82	380	29069	380	74843740
41	290	3860	-41	-24	28	-8	64	82	381	29169	381	74843740
41	305	3880	-39	-25	28	-4	68	80	382	29222	382	74843743
29	298	3866	-38	-23	28	-4	68	80	383	29322	383	74843744
36	297	3879	-40	-24	24	0	70	80	384	29375	384	74843746
52	280	3851	-40	-25	28	0	70	80	385	29475	385	74843765
38	287	3866	-38	-23	28	1	67	83	386	29528	386	74843765
40	298	3859	-39	-23	29	1	67	83	387	29628	387	74843768
35	292	3857	-40	-24	30	-4	64	82	388	29681	388	74843769
45	277	3865	-39	-25	29	-4	64	82	389	29781	389	74843771
37	300	3877	-39	-24	27	-6	70	78	390	29834	390	74843790
44	297	3882	-41	-24	30	-6	70	78	391	29934	391	74843790
57	282	3871	-38	-23	26	-2	68	90	392	29987	392	74843794
39	291	3879	-42	-20	26	-2	68	90	393	30087	393	74843794
50	291	3886	-40	-25	29	-4	70	80	394	30140	394	74843796
48	281	3861	-38	-24	27	-4	70	80	395	30240	395	74843815
40	307	3861	-37	-25	26	-5	67	83	396	30293	396	74843815
34	285	3877	-42	-23	27	-5	67	83	397	30393	397	74843819
43	293	3877	-40	-24	27	-2	72	90	398	30446	398	74843819
52	293	3875	-37	-20	27	-2	72	90	399	30546	399	74843821
54	282	3844	-38	-22	30	1	69	85	400	30599	400	74843842
61	288	3876	-40	-20	29	1	69	85	401	30699	401	74843842
34	285	3865	-39	-21	28	3	63	87	402	30752	402	74843846
46	291	3886	-42	-24	27	3	63	87	403	30852	403	74843846
36	281	3884	-39	-21	31	-4	66	88	404	30905	404	74843848
35	305	3860	-38	-24	28	-4	66	88	405	31005	405	74843850
39	293	3866	-38	-24	29	-2	68	82	406	31058	406	74843850
40	284	3852	-38	-23	29	-2	68	82	407	31158	407	74843870
48	289	3847	-40	-23	28	-10	68	84	408	31211	408	74843870
33	298	3881	-41	-22	27	-10	68	84	409	31311	409	74843873
35	287	3864	-41	-22	31	-1	63	85	410	31364	410	74843874
42	286	3875	-38	-25	31	-1	63	85	411	31464	411	74843890
43	283	3883	-39	-23	28	-4	64	84	412	31517	412	74843891
46	293	3877	-39	-20	29	-4	64	84	413	31617	413	74843891
52	292	3862	-38	-24	27	2	66	84	414	31670	414	74843901
39	292	3865	-42	-23	26	2	66	84	415	31770	415	74843901
58	281	3886	-38	-23	30	-1	65	87	416	31823	416	74843903
36	285	3878	-38	-26	29	-1	65	87	417	31923	417	74843916
37	292	3869	-36	-24	29	-6	68	88	418	31976	418	74843916
44	283	3908	-37	-25	31	-6	68	88	419	32076	419	74843924
40	281	3876	-40	-23	30	-1	63	85	420	32129	420	74843925
53	276	3861	-40	-25	25	-1	63	85	421	32229	421	74843941
42	283	3879	-40	-22	30	2	72	82	422	32282	422	74843942
44	276	3873	-40	-23	30	2	72	82	423	32382	423	74843942
49	299	3891	-38	-23	24	-2	66	80	424	32435	424	74843949
45	291	3860	-42	-22	28	-2	66	80	425	32535	425	74843950
37	277	3874	-37	-24	28	-2	64	86	426	32588	426	74843965
22	286	3880	-41	-24	28	-2	64	86	427	32688	427	74843967
49	293	3870	-39	-25	30	-4	68	76	428	32741	428	74843968
39	285	3871	-40	-23	32	-4	68	76	429	32841	429	74843974
47	267	3848	-38	-24	27	0	66	86	430	32894	430	74843975
57	293	3870	-37	-22	28	0	66	86	431	32994	431	74843991
27	295	3867	-37	-23	29	-6	64	86	432	33047	432	74843992
46	272	3859	-39	-25	28	-6	64	86	433	33147	433	74843992
45	286	3849	-41	-24	25	-5	69	79	434	33200	434	74843999
41	281	3882	-39	-21	28	-5	69	79	435	33300	435	74844000
50	269	3876	-37	-22	27	1	67	83	436	33353	436	74844015
51	290	3865	-41	-24	25	1	67	83	437	33453	437	74844016
33	300	3876	-38	-23	30	-6	70	86	438	33506	438	74844016
52	286	3864	-40	-23	30	-6	70	86	439	33606	439	74844023
34	279	3858	-39	-26	26	-1	67	83	440	33659	440	74844024
57	287	3854	-39	-24	28	-1	67	83	441	33759	441	74844040
48	283	3859	-38	-23	28	-4	60	84	442	33812	442	74844041
49	298	3894	-41	-23	26	-4	60	84	443	33912	443	74844043
44	265	3873	-41	-21	28	-5	69	81	444	33965	444	74844048
37	294	3866	-41	-24	30	-5	69	81	445	34065	445	74844048
37	289	3869	-37	-26	26	1	63	85	446	34118	446	74844066
32	303	3847	-39	-22	29	1	63	85	447	34218	447	74844066
35	287	3866	-36	-26	31	-3	65	89	448	34271	448	74844068
56	288	3857	-38	-21	29	-3	65	89	449	34371	449	74844071
38	268	3866	-39	-22	25	-6	62	80	450	34424	450	74844071
44	299	3874	-44	-23	28	-6	62	80	451	34524	451	74844091
29	297	3865	-42	-24	25	-11	65	91	452	34577	452	74844091
32	286	3869	-39	-23	28	-11	65	91	453	34677	453	74844093
43	274	3864	-39	-25	29	-6	62	88	454	34730	454	74844096
46	275	3877	-37	-22	27	-6	62	88	455	34830	455	74844096
25	288	3878	-40	-22	27	-9	61	79	456	34883	456	74844115
42	276	3857	-40	-24	29	-9	61	79	457	34983	457	74844116
40	290	3876	-40	-24	28	0	66	82	458	35036	458	74844118
46	288	3876	-37	-23	26	0	66	82	459	35136	459	74844119
43	293	3877	-39	-23	31	1	65	85	460	35189	460	74844120
50	289	3870	-42	-23	31	1	65	85	461	35289	461	74844140
53	284	3867	-42	-23	28	-2	62	86	462	35342	462	74844141
41	280	3881	-40	-24	29	-2	62	86	463	35442	463	74844143
33	285	3878	-37	-26	28	-2	64	92	464	35495	464	74844144
31	279	3877	-38	-24	26	-2	64	92	465	35595	465	74844146
40	281	3869	-40	-23	30	-10	64	84	466	35648	466	74844165
43	290	3864	-40	-22	31	-10	64	84	467	35748	467	74844166
46	289	3877	-37	-23	27	-2	64	86	468	35801	468	74844169
47	291	3873	-42	-22	28	-2	64	86	469	35901	469	74844169
53	298	3869	-42	-24	26	-8	66	78	470	35954	470	74844170
41	300	3860	-42	-23	28	-8	66	78	471	36054	471	74844190
46	280	3859	-38	-23	27	-1	67	85	472	36107	472	74844191
66	279	3861	-38	-21	29	-1	67	85	473	36207	473	74844194
70	287	3872	-39	-23	26	-3	67	89	474	36260	474	74844194
44	293	3874	-41	-22	26	-3	67	89	475	36360	475	74844197
14	280	3863	-40	-24	30	-5	61	85	476	36413	476	74844218
42	285	3845	-41	-23	29	-5	61	85	477	36513	477	74844218
51	289	3864	-39	-24	27	1	63	87	478	36566	478	74844222
57	292	3881	-39	-23	30	1	63	87	479	36666	479	74844222
46	282	3864	-38	-22	29	-8	66	80	480	36719	480	74844224
50	301	3881	-41	-24	27	-8	66	80	481	36819	481	74844239
32	281	3868	-38	-27	30	-1	63	81	482	36872	482	74844240
33	272	3872	-39	-23	28	-1	63	81	483	36972	483	74844243
49	283	3877	-40	-24	23	-5	61	83	484	37025	484	74844243
57	285	3856	-40	-23	26	-5	61	83	485	37125	485	74844245
36	289	3869	-40	-23	30	-3	67	83	486	37178	486	74844307
47	291	3875	-41	-22	26	-3	67	83	487	37278	487	74844308
49	278	3871	-39	-24	27	-8	76	86	488	37331	488	74844311
34	291	3871	-41	-22	31	-8	76	86	489	37431	489	74844311
39	300	3882	-36	-23	28	-2	70	88	490	37484	490	74844313
57	281	3867	-41	-18	27	-2	70	88	491	37584	491	74844314
29	283	3863	-41	-21	29	-2	64	80	492	37637	492	74844316
44	294	3866	-41	-23	25	-2	64	80	493	37737	493	74844332
38	279	3877	-41	-23	28	-7	69	79	494	37790	494	74844332
58	287	3874	-44	-23	29	-7	69	79	495	37890	495	74844335
57	283	3870	-38	-20	28	-3	69	81	496	37943	496	74844336
40	288	3886	-36	-21	29	-3	69	81	497	38043	497	74844336
43	285	3865	-39	-24	31	-9	67	81	498	38096	498	74844339
41	286	3874	-38	-21	28	-9	67	81	499	38196	499	74844339
49	286	3888	-39	-23	26	2	70	82	500	38249	500	74844355
47	296	3876	-41	-24	26	2	70	82	501	38349	501	74844356
41	287	3862	-39	-23	27	1	65	89	502	38402	502	74844358
30	281	3881	-39	-23	26	1	65	89	503	38502	503	74844359
53	278	3877	-40	-22	28	-4	66	86	504	38555	504	74844360
43	278	3863	-39	-24	29	-4	66	86	505	38655	505	74844363
43	286	3857	-36	-23	26	-3	65	87	506	38708	506	74844364
41	303	3879	-40	-23	25	-3	65	87	507	38808	507	74844365
42	277	3866	-38	-22	30	-7	67	85	508	38861	508	74844367
32	286	3874	-36	-20	26	-7	67	85	509	38961	509	74844367
39	295	3851	-39	-23	27	-9	57	85	510	39014	510	74844380
38	285	3881	-42	-27	31	-9	57	85	511	39114	511	74844381
41	276	3867	-39	-26	28	-3	61	87	512	39167	512	74844383
42	283	3871	-39	-24	28	-3	61	87	513	39267	513	74844388
29	290	3854	-40	-25	27	0	68	78	514	39320	514	74844388
31	284	3843	-40	-23	26	0	68	78	515	39420	515	74844405
40	297	3856	-39	-22	25	-2	64	90	516	39473	516	74844406
41	296	3860	-42	-20	28	-2	64	90	517	39573	517	74844408
42	302	3876	-41	-23	27	1	69	81	518	39626	518	74844413
31	294	3874	-39	-24	25	1	69	81	519	39726	519	74844414
62	285	3861	-39	-23	29	-5	63	91	520	39779	520	74844430
34	284	3860	-39	-22	30	-5	63	91	521	39879	521	74844431
47	280	3873	-38	-26	26	-7	59	83	522	39932	522	74844434
47	262	3867	-39	-22	30	-7	59	83	523	40032	523	74844434
42	288	3869	-38	-22	28	-6	70	82	524	40085	524	74844434
29	287	3864	-40	-24	28	-6	70	82	525	40185	525	74844458
47	286	3869	-40	-24	29	2	66	90	526	40238	526	74844458
42	274	3882	-41	-23	27	2	66	90	527	40338	527	74844462
30	285	3877	-40	-23	27	-5	63	85	528	40391	528	74844462
44	301	3885	-39	-24	25	-5	63	85	529	40491	529	74844464
47	278	3879	-38	-23	26	-2	64	86	530	40544	530	74844482
50	273	3864	-41	-21	26	-2	64	86	531	40644	531	74844482
28	281	3880	-38	-23	28	2	66	86	532	40697	532	74844485
41	275	3871	-39	-24	30	2	66	86	533	40797	533	74844486
54	295	3866	-39	-24	29	-3	65	81	534	40850	534	74844488
36	284	3879	-40	-25	26	-3	65	81	535	40950	535	74844507
33	301	3875	-40	-24	26	-1	63	85	536	41003	536	74844507
50	278	3873	-37	-23	27	-1	63	85	537	41103	537	74844510
33	295	3867	-39	-25	27	-1	71	87	538	41156	538	74844511
35	295	3878	-39	-22	30	-1	71	87	539	41256	539	74844513
60	282	3874	-38	-22	28	0	68	80	540	41309	540	74844530
66	291	3866	-41	-26	26	0	68	80	541	41409	541	74844531
46	299	3886	-39	-25	28	-3	63	91	542	41462	542	74844534
43	281	3881	-38	-24	27	-3	63	91	543	41562	543	74844534
52	279	3872	-39	-25	25	-2	72	82	544	41615	544	74844537
44	296	3861	-41	-25	29	-2	72	82	545	41715	545	74844555
29	286	3873	-39	-24	30	-3	65	81	546	41768	546	74844558
33	293	3855	-40	-22	28	-3	65	81	547	41868	547	74844559
39	284	3876	-38	-24	27	-4	70	78	548	41921	548	74844560
30	300	3886	-38	-24	27	-4	70	78	549	42021	549	74844561
37	280	3876	-41	-25	27	-5	65	83	550	42074	550	74844580
34	291	3857	-38	-26	28	-5	65	83	551	42174	551	74844581
44	289	3863	-37	-23	28	-2	62	88	552	42227	552	74844584
30	283	3884	-40	-24	28	-2	62	88	553	42327	553	74844584
36	277	3868	-36	-22	27	-5	63	81	554	42380	554	74844587
40	279	3882	-40	-24	31	-5	63	81	555	42480	555	74844605
48	287	3853	-38	-23	27	-5	63	83	556	42533	556	74844606
59	285	3866	-37	-23	26	-5	63	83	557	42633	557	74844609
46	285	3859	-36	-24	28	1	63	83	558	42686	558	74844616
39	284	3869	-38	-25	28	1	63	83	559	42786	559	74844630
41	292	3870	-37	-22	26	-5	65	85	560	42839	560	74844631
40	286	3869	-40	-26	29	-5	65	85	561	42939	561	74844633
35	273	3884	-39	-27	27	-5	69	87	562	42992	562	74844634
29	274	3869	-38	-24	25	-5	69	87	563	43092	563	74844634
34	293	3864	-39	-24	29	-2	66	82	564	43145	564	74844655
53	272	3873	-39	-21	28	-2	66	82	565	43245	565	74844656
38	283	3860	-37	-24	25	1	59	87	566	43298	566	74844658
48	280	3843	-38	-22	27	1	59	87	567	43398	567	74844659
50	295	3865	-41	-23	27	-7	73	87	568	43451	568	74844659
46	281	3890	-42	-22	23	-7	73	87	569	43551	569	74844667
33	279	3867	-39	-24	25	-9	73	83	570	43604	570	74844667
57	282	3891	-40	-24	27	-9	73	83	571	43704	571	74844680
49	281	3880	-40	-23	25	-4	68	90	572	43757	572	74844682
45	284	3870	-42	-22	26	-4	68	90	573	43857	573	74844683
43	283	3852	-40	-23	28	-5	65	81	574	43910	574	74844691
46	292	3850	-42	-24	28	-5	65	81	575	44010	575	74844692
37	293	3875	-39	-25	30	-3	65	89	576	44063	576	74844694
44	284	3865	-39	-22	31	-3	65	89	577	44163	577	74844708
45	272	3877	-36	-22	27	-9	69	83	578	44216	578	74844708
22	283	3872	-39	-24	26	-9	69	83	579	44316	579	74844715
39	292	3875	-37	-25	28	-3	67	83	580	44369	580	74844716
40	303	3869	-39	-25	29	-3	67	83	581	44469	581	74844730
41	286	3881	-40	-23	27	-4	62	90	582	44522	582	74844730
49	279	3876	-36	-26	28	-4	62	90	583	44622	583	74844731
56	288	3878	-38	-26	28	1	67	85	584	44675	584	74844740
37	298	3861	-38	-24	27	1	67	85	585	44775	585	74844741
35	294	3867	-37	-22	30	-4	64	90	586	44828	586	74844756
46	297	3849	-38	-23	28	-4	64	90	587	44928	587	74844757
55	272	3864	-40	-24	27	-3	67	85	588	44981	588	74844759
46	284	3872	-38	-22	28	-3	67	85	589	45081	589	74844765
37	305	3861	-38	-24	27	-3	65	83	590	45134	590	74844766
49	279	3851	-40	-24	25	-3	65	83	591	45234	591	74844783
59	291	3863	-39	-23	29	2	62	80	592	45287	592	74844783
41	276	3859	-38	-21	29	2	62	80	593	45387	593	74844785
54	275	3872	-37	-21	25	-6	68	82	594	45440	594	74844808
31	290	3877	-40	-20	26	-6	68	82	595	45540	595	74844808
28	293	3866	-38	-25	30	-7	67	83	596	45593	596	74844810
62	281	3860	-37	-21	26	-7	67	83	597	45693	597	74844811
47	290	3870	-37	-25	27	-3	63	85	598	45746	598	74844813
41	284	3869	-41	-24	29	-3	63	85	599	45846	599	74844814
46	290	3872	-37	-24	30	-5	69	85	600	45899	600	74844815
54	298	3864	-41	-23	25	-5	69	85	601	45999	601	74844831
31	290	3864	-39	-23	25	-7	65	87	602	46052	602	74844832
33	290	3863	-39	-25	27	-7	65	87	603	46152	603	74844834
45	278	3851	-40	-21	25	-5	67	85	604	46205	604	74844839
45	295	3857	-40	-21	28	-5	67	85	605	46305	605	74844840
51	276	3860	-40	-21	30	-6	64	82	606	46358	606	74844857
37	288	3881	-40	-22	27	-6	64	82	607	46458	607	74844857
42	272	3861	-40	-24	32	-7	67	89	608	46511	608	74844860
26	301	3847	-41	-24	29	-7	67	89	609	46611	609	74844860
39	285	3883	-40	-24	25	-5	71	89	610	46664	610	74844861
45	285	3857	-38	-20	27	-5	71	89	611	46764	611	74844881
51	298	3889	-38	-24	28	-4	64	88	612	46817	612	74844882
55	292	3839	-39	-24	25	-4	64	88	613	46917	613	74844885
49	287	3891	-38	-25	26	-2	72	86	614	46970	614	74844886
48	269	3859	-41	-24	28	-2	72	86	615	47070	615	74844888
56	294	3853	-41	-24	25	4	70	86	616	47123	616	74844905
44	283	3855	-39	-20	27	4	70	86	617	47223	617	74844906
53	298	3883	-39	-25	30	-3	67	85	618	47276	618	74844909
63	277	3857	-37	-23	27	-3	67	85	619	47376	619	74844909
39	290	3845	-37	-26	27	-3	67	81	620	47429	620	74844913
47	280	3883	-41	-21	31	-3	67	81	621	47529	621	74844940
44	291	3877	-39	-23	28	0	70	88	622	47582	622	74844941
35	269	3899	-40	-22	28	0	70	88	623	47682	623	74844956
44	285	3862	-37	-25	30	-1	63	85	624	47735	624	74844957
53	288	3885	-40	-22	28	-1	63	85	625	47835	625	74844959
53	291	3870	-40	-24	28	-1	69	85	626	47888	626	74844960
44	280	3893	-38	-23	29	-1	69	85	627	47988	627	74844960
48	293	3874	-39	-22	29	-2	64	84	628	48041	628	74844964
22	281	3866	-40	-24	28	-2	64	84	629	48141	629	74844964
45	282	3865	-39	-24	30	-3	67	81	630	48194	630	74844966
42	276	3871	-40	-20	28	-3	67	81	631	48294	631	74844981
43	285	3873	-39	-23	26	-5	59	87	632	48347	632	74844982
60	294	3863	-39	-22	27	-5	59	87	633	48447	633	74844985
48	276	3885	-37	-24	30	-3	71	83	634	48500	634	74844985
46	291	3879	-40	-22	28	-3	71	83	635	48600	635	74844988
28	280	3871	-38	-23	27	-2	68	86	636	48653	636	74845005
37	283	3883	-38	-23	28	-2	68	86	637	48753	637	74845005
59	294	3890	-39	-22	28	-4	64	86	638	48806	638	74845009
47	284	3859	-40	-23	27	-4	64	86	639	48906	639	74845009
43	287	3856	-37	-24	28	-8	68	82	640	48959	640	74845030
33	288	3867	-40	-25	27	-8	68	82	641	49059	641	74845031
49	272	3865	-40	-23	24	-5	63	89	642	49112	642	74845032
60	284	3870	-41	-21	28	-5	63	89	643	49212	643	74845034
39	285	3886	-38	-24	27	-7	65	87	644	49265	644	74845035
41	283	3884	-38	-25	24	-7	65	87	645	49365	645	74845055
41	287	3861	-35	-25	28	2	64	84	646	49418	646	74845055
43	290	3870	-37	-25	29	2	64	84	647	49518	647	74845058
44	296	3882	-40	-23	26	1	65	89	648	49571	648	74845059
51	280	3857	-43	-24	30	1	65	89	649	49671	649	74845059
51	294	3854	-39	-22	29	-9	69	83	650	49724	650	74845080
49	294	3853	-39	-23	26	-9	69	83	651	49824	651	74845080
60	291	3859	-39	-26	28	-2	66	92	652	49877	652	74845083
48	282	3859	-38	-26	30	-2	66	92	653	49977	653	74845084
38	290	3871	-37	-25	26	-4	70	82	654	50030	654	74845084
37	306	3850	-41	-23	27	-4	70	82	655	50130	655	74845091
35	286	3872	-41	-23	28	-1	71	87	656	50183	656	74845092
52	292	3866	-42	-22	25	-1	71	87	657	50283	657	74845107
33	286	3864	-40	-25	26	-4	68	90	658	50336	658	74845108
53	295	3848	-40	-22	28	-4	68	90	659	50436	659	74845108
73	283	3853	-37	-23	28	-2	74	88	660	50489	660	74845116
37	276	3859	-40	-24	30	-2	74	88	661	50589	661	74845117
43	291	3861	-39	-25	31	-3	69	87	662	50642	662	74845119
39	300	3876	-37	-25	30	-3	69	87	663	50742	663	74845132
41	282	3872	-37	-23	28	-1	65	83	664	50795	664	74845132
52	294	3851	-37	-23	30	-1	65	83	665	50895	665	74845141
32	295	3858	-37	-24	30	-7	67	79	666	50948	666	74845142
46	296	3870	-40	-21	30	-7	67	79	667	51048	667	74845156
42	294	3861	-41	-23	28	-1	63	87	668	51101	668	74845163
35	284	3882	-40	-24	26	-1	63	87	669	51201	669	74845164
51	290	3872	-39	-26	24	0	66	76	670	51254	670	74845166
43	280	3860	-39	-23	28	0	66	76	671	51354	671	74845167
35	288	3875	-38	-27	29	0	66	86	672	51407	672	74845180
58	289	3880	-38	-25	26	0	66	86	673	51507	673	74845180
46	295	3855	-36	-26	28	-6	66	86	674	51560	674	74845183
49	287	3850	-39	-22	28	-6	66	86	675	51660	675	74845190
46	291	3862	-38	-24	27	-5	67	81	676	51713	676	74845190
39	290	3851	-39	-24	29	-5	67	81	677	51813	677	74845205
47	290	3866	-35	-24	30	0	64	88	678	51866	678	74845206
38	297	3873	-40	-22	27	0	64	88	679	51966	679	74845207
58	305	3882	-39	-23	27	-5	69	81	680	52019	680	74845215
50	290	3874	-43	-23	29	-5	69	81	681	52119	681	74845216
43	296	3875	-38	-22	27	-6	66	88	682	52172	682	74845230
36	293	3864	-41	-23	25	-6	66	88	683	52272	683	74845231
41	284	3868	-39	-24	30	-5	65	87	684	52325	684	74845233
40	298	3870	-40	-24	27	-5	65	87	685	52425	685	74845239
45	293	3856	-41	-23	24	-9	63	83	686	52478	686	74845239
36	285	3851	-40	-22	27	-9	63	83	687	52578	687	74845255
53	276	3877	-40	-25	25	6	66	90	688	52631	688	74845255
45	288	3846	-38	-24	26	6	66	90	689	52731	689	74845257
51	295	3864	-39	-24	30	-2	66	82	690	52784	690	74845264
23	285	3854	-44	-22	29	-2	66	82	691	52884	691	74845264
41	280	3859	-40	-24	22	-6	66	86	692	52937	692	74845281
45	285	3884	-40	-23	28	-6	66	86	693	53037	693	74845282
33	285	3890	-38	-23	27	-1	65	87	694	53090	694	74845285
44	273	3872	-39	-22	26	-1	65	87	695	53190	695	74845286
56	286	3861	-37	-25	28	-4	66	82	696	53243	696	74845286
54	276	3864	-39	-22	29	-4	66	82	697	53343	697	74845305
58	285	3879	-40	-25	25	-3	67	89	698	53396	698	74845306
50	270	3854	-40	-23	26	-3	67	89	699	53496	699	74845309
43	272	3863	-39	-23	32	-3	65	89	700	53549	700	74845309
42	280	3879	-39	-24	27	-3	65	89	701	53649	701	74845313
29	290	3891	-36	-23	27	-4	66	88	702	53702	702	74845330
47	282	3852	-39	-25	30	-4	66	88	703	53802	703	74845331
52	281	3853	-39	-23	26	0	68	88	704	53855	704	74845334
50	287	3873	-40	-24	26	0	68	88	705	53955	705	74845335
54	284	3854	-39	-24	30	-5	67	83	706	54008	706	74845337
26	270	3870	-40	-22	30	-5	67	83	707	54108	707	74845355
46	300	3860	-41	-24	30	-1	67	83	708	54161	708	74845356
33	289	3865	-40	-24	30	-1	67	83	709	54261	709	74845359
28	288	3859	-40	-27	29	0	66	86	710	54314	710	74845360
57	288	3863	-42	-24	27	0	66	86	711	54414	711	74845363
38	292	3878	-37	-24	27	-4	66	80	712	54467	712	74845380
40	284	3868	-41	-24	27	-4	66	80	713	54567	713	74845381
25	286	3882	-40	-24	26	-5	67	81	714	54620	714	74845384
35	297	3872	-40	-26	26	-5	67	81	715	54720	715	74845384
48	292	3857	-39	-26	28	-8	72	82	716	54773	716	74845388
46	281	3875	-42	-23	26	-8	72	82	717	54873	717	74845406
60	284	3865	-43	-26	26	-6	64	90	718	54926	718	74845408
21	291	3873	-42	-24	29	-6	64	90	719	55026	719	74845410
45	301	3876	-38	-24	27	-8	68	84	720	55079	720	74845412
36	279	3893	-37	-23	28	-8	68	84	721	55179	721	74845413
38	284	3887	-39	-22	29	-1	65	83	722	55232	722	74845431
34	290	3850	-38	-24	27	-1	65	83	723	55332	723	74845431
32	290	3874	-38	-23	29	4	66	84	724	55385	724	74845434
44	293	3863	-38	-24	29	4	66	84	725	55485	725	74845435
42	301	3872	-37	-23	27	0	68	90	726	55538	726	74845458
44	277	3872	-40	-23	24	0	68	90	727	55638	727	74845458
40	286	3886	-40	-23	28	-8	64	82	728	55691	728	74845460
47	287	3870	-40	-22	28	-8	64	82	729	55791	729	74845461
36	278	3884	-39	-23	25	-6	64	88	730	55844	730	74845463
41	278	3856	-39	-23	30	-6	64	88	731	55944	731	74845482
48	281	3869	-39	-24	28	-5	69	83	732	55997	732	74845483
54	281	3881	-39	-26	27	-5	69	83	733	56097	733	74845485
48	292	3883	-38	-26	28	-1	63	85	734	56150	734	74845486
27	284	3865	-39	-22	29	-1	63	85	735	56250	735	74845487
52	304	3868	-39	-23	26	-6	66	82	736	56303	736	74845506
44	292	3867	-42	-22	26	-6	66	82	737	56403	737	74845506
53	290	3865	-41	-23	30	-4	64	92	738	56456	738	74845509
33	307	3876	-40	-25	27	-4	64	92	739	56556	739	74845510
28	310	3863	-38	-24	27	-4	70	78	740	56609	740	74845510
61	304	3868	-40	-23	27	-4	70	78	741	56709	741	74845531
38	305	3856	-41	-23	27	-1	69	85	742	56762	742	74845531
30	288	3858	-42	-24	27	-1	69	85	743	56862	743	74845534
39	276	3872	-38	-23	29	-3	65	87	744	56915	744	74845535
39	302	3859	-39	-24	27	-3	65	87	745	57015	745	74845535
42	285	3854	-41	-22	29	3	73	81	746	57068	746	74845581
35	297	3854	-43	-23	32	3	73	81	747	57168	747	74845581
41	291	3885	-39	-26	29	3	67	87	748	57221	748	74845584
42	292	3879	-40	-23	25	3	67	87	749	57321	749	74845585
53	268	3876	-41	-27	30	1	71	81	750	57374	750	74845585
38	287	3862	-40	-26	28	1	71	81	751	57474	751	74845589
48	288	3864	-38	-24	25	-6	68	82	752	57527	752	74845589
38	284	3855	-40	-22	30	-6	68	82	753	57627	753	74845606
40	288	3871	-41	-24	29	-1	67	85	754	57680	754	74845606
41	283	3878	-42	-24	27	-1	67	85	755	57780	755	74845609
47	286	3874	-40	-25	30	-4	66	82	756	57833	756	74845610
49	312	3868	-42	-24	30	-4	66	82	757	57933	757	74845610
24	285	3873	-42	-23	29	2	66	90	758	57986	758	74845614
54	279	3864	-40	-21	29	2	66	90	759	58086	759	74845615
36	291	3864	-39	-23	27	-3	65	91	760	58139	760	74845616
59	284	3872	-40	-25	26	-3	65	91	761	58239	761	74845631
34	273	3881	-39	-24	28	1	67	79	762	58292	762	74845632
42	297	3854	-43	-25	29	1	67	79	763	58392	763	74845635
47	306	3883	-38	-23	27	-2	64	90	764	58445	764	74845635
56	296	3857	-42	-22	29	-2	64	90	765	58545	765	74845638
32	287	3873	-39	-24	28	-8	68	84	766	58598	766	74845639
50	283	3877	-37	-25	27	-8	68	84	767	58698	767	74845639
38	281	3890	-39	-25	28	-9	65	81	768	58751	768	74845655
24	288	3876	-40	-19	30	-9	65	81	769	58851	769	74845655
43	287	3864	-37	-24	29	-5	65	89	770	58904	770	74845657
42	295	3866	-38	-21	26	-5	65	89	771	59004	771	74845665
52	283	3875	-37	-23	29	-6	64	84	772	59057	772	74845665
44	299	3856	-40	-25	27	-6	64	84	773	59157	773	74845680
48	279	3880	-37	-23	26	-1	65	89	774	59210	774	74845681
51	276	3867	-39	-23	30	-1	65	89	775	59310	775	74845682
42	294	3864	-37	-25	28	1	67	83	776	59362	776	74845690
36	295	3846	-40	-24	25	1	67	83	777	59463	777	74845690
33	293	3856	-38	-22	27	-7	67	87	778	59516	778	74845705
42	296	3880	-42	-23	27	-7	67	87	779	59616	779	74845705
52	279	3874	-37	-26	26	-5	67	85	780	59669	780	74845710
43	293	3866	-40	-24	27	-5	67	85	781	59769	781	74845710
48	307	3856	-39	-22	31	-1	65	81	782	59822	782	74845713
33	283	3889	-39	-24	27	-1	65	81	783	59922	783	74845730
39	292	3877	-38	-22	26	-6	64	86	784	59975	784	74845730
22	278	3867	-39	-23	29	-6	64	86	785	60075	785	74845734
39	287	3873	-41	-23	31	-3	65	85	786	60128	786	74845734
43	296	3888	-38	-20	28	-3	65	85	787	60228	787	74845740
38	288	3880	-38	-20	30	-7	63	85	788	60281	788	74845757
31	293	3868	-39	-22	28	-7	63	85	789	60381	789	74845758
32	307	3873	-42	-24	27	-3	67	87	790	60434	790	74845761
32	283	3867	-41	-24	29	-3	67	87	791	60534	791	74845762
28	282	3881	-39	-25	27	3	67	83	792	60587	792	74845764
47	296	3876	-39	-27	27	3	67	83	793	60687	793	74845783
52	291	3863	-36	-24	28	-4	66	86	794	60740	794	74845783
46	287	3867	-37	-23	30	-4	66	86	795	60840	795	74845786
42	266	3871	-37	-26	28	1	71	77	796	60893	796	74845787
61	281	3867	-38	-25	28	1	71	77	797	60993	797	74845789
44	288	3864	-39	-22	29	-3	71	79	798	61046	798	74845806
47	297	3848	-37	-26	27	-3	71	79	799	61146	799	74845806
49	278	3871	-40	-24	27	0	66	86	800	61199	800	74845810
30	284	3845	-40	-22	32	0	66	86	801	61299	801	74845810
45	272	3869	-36	-23	28	1	59	81	802	61352	802	74845812
15	298	3854	-40	-25	28	1	59	81	803	61452	803	74845831
38	305	3858	-35	-23	31	-5	63	81	804	61505	804	74845832
27	291	3860	-38	-20	28	-5	63	81	805	61605	805	74845835
45	299	3870	-35	-23	28	-2	70	82	806	61658	806	74845836
21	289	3850	-40	-23	29	-2	70	82	807	61758	807	74845856
33	298	3887	-38	-29	29	0	70	90	808	61811	808	74845856
39	287	3882	-39	-26	27	0	70	90	809	61911	809	74845859
46	285	3880	-38	-26	32	1	69	83	810	61964	810	74845860
50	281	3870	-40	-22	27	1	69	83	811	62064	811	74845860
46	288	3858	-39	-24	28	-7	77	77	812	62117	812	74845881
38	286	3882	-38	-21	28	-7	77	77	813	62217	813	74845882
53	289	3878	-39	-24	29	-2	68	84	814	62270	814	74845884
29	285	3878	-41	-25	29	-2	68	84	815	62370	815	74845885
52	311	3864	-38	-24	29	-6	76	76	816	62423	816	74845886
55	282	3888	-39	-24	28	-6	76	76	817	62523	817	74845905
36	287	3868	-40	-23	27	-4	64	84	818	62576	818	74845905
24	284	3873	-40	-20	28	-4	64	84	819	62676	819	74845908
48	276	3871	-39	-23	30	-3	67	81	820	62729	820	74845909
35	278	3876	-39	-21	25	-3	67	81	821	62829	821	74845909
46	294	3858	-39	-24	29	-1	65	85	822	62882	822	74845930
29	293	3858	-39	-26	28	-1	65	85	823	62982	823	74845930
60	288	3873	-36	-24	27	-6	70	92	824	63035	824	74845932
44	291	3852	-41	-21	26	-6	70	92	825	63135	825	74845934
42	290	3864	-40	-22	28	-5	65	85	826	63188	826	74845934
65	282	3867	-38	-27	29	-5	65	85	827	63288	827	74845955
50	275	3864	-37	-26	29	-4	66	82	828	63341	828	74845956
55	282	3863	-38	-26	32	-4	66	82	829	63441	829	74845957
59	282	3870	-38	-23	26	-4	64	90	830	63494	830	74845959
42	287	3870	-40	-23	24	-4	64	90	831	63594	831	74845961
39	290	3873	-40	-25	28	-3	67	79	832	63647	832	74845980
48	294	3878	-41	-22	28	-3	67	79	833	63747	833	74845980
44	282	3876	-42	-25	25	-4	68	82	834	63800	834	74845984
50	286	3869	-41	-23	26	-4	68	82	835	63900	835	74845984
47	275	3878	-38	-21	27	-2	66	84	836	63953	836	74845984
47	286	3867	-39	-23	27	-2	66	84	837	64053	837	74846005
44	283	3861	-37	-24	29	0	68	84	838	64106	838	74846006
49	298	3853	-38	-25	29	0	68	84	839	64206	839	74846009
44	296	3870	-37	-21	27	1	65	89	840	64259	840	74846009
31	296	3878	-39	-21	29	1	65	89	841	64359	841	74846010
35	282	3857	-37	-24	29	-7	61	81	842	64412	842	74846030
44	268	3861	-43	-23	29	-7	61	81	843	64512	843	74846031
50	284	3877	-38	-22	28	-7	65	87	844	64565	844	74846034
47	276	3857	-41	-22	28	-7	65	87	845	64665	845	74846034
50	299	3873	-42	-25	27	-4	70	80	846	64718	846	74846036
49	301	3873	-38	-24	28	-4	70	80	847	64818	847	74846041
39	283	3862	-37	-26	28	-4	70	88	848	64871	848	74846042
42	291	3857	-39	-24	28	-4	70	88	849	64971	849	74846055
45	273	3850	-41	-23	26	0	68	88	850	65024	850	74846055
47	285	3857	-40	-22	31	0	68	88	851	65124	851	74846057
37	288	3876	-39	-26	28	-5	67	81	852	65177	852	74846091
45	280	3854	-39	-24	26	-5	67	81	853	65277	853	74846092
73	284	3879	-37	-23	30	-2	66	84	854	65330	854	74846095
40	290	3850	-41	-24	26	-2	66	84	855	65430	855	74846096
50	300	3859	-40	-23	27	-3	69	83	856	65483	856	74846097
42	303	3875	-37	-25	27	-3	69	83	857	65583	857	74846099
52	292	3835	-39	-24	29	-6	64	84	858	65636	858	74846100
33	285	3878	-40	-23	29	-6	64	84	859	65736	859	74846102
52	297	3861	-36	-25	27	-2	66	90	860	65789	860	74846103
63	306	3873	-38	-22	26	-2	66	90	861	65889	861	74846108
46	296	3870	-37	-24	25	-6	64	84	862	65942	862	74846120
51	280	3864	-38	-23	26	-6	64	84	863	66042	863	74846122
36	286	3884	-39	-24	29	-2	66	80	864	66095	864	74846125
55	292	3870	-40	-24	26	-2	66	80	865	66195	865	74846126
51	275	3889	-37	-25	28	-6	66	84	866	66248	866	74846141
50	290	3852	-38	-23	31	-6	66	84	867	66348	867	74846142
46	293	3870	-39	-26	28	-2	64	86	868	66401	868	74846142
35	292	3873	-38	-23	27	-2	64	86	869	66501	869	74846150
49	309	3883	-39	-24	28	-5	63	81	870	66554	870	74846152
53	295	3867	-43	-23	26	-5	63	81	871	66654	871	74846167
31	286	3866	-38	-21	30	-4	60	80	872	66707	872	74846168
31	290	3854	-38	-22	31	-4	60	80	873	66807	873	74846170
32	292	3877	-39	-24	28	-3	69	85	874	66860	874	74846175
42	292	3868	-40	-22	26	-3	69	85	875	66960	875	74846175
44	283	3858	-39	-23	27	0	66	80	876	67013	876	74846192
53	289	3881	-37	-23	27	0	66	80	877	67113	877	74846193
45	295	3858	-38	-24	26	-1	67	87	878	67166	878	74846195
40	295	3870	-39	-24	30	-1	67	87	879	67266	879	74846221
46	287	3886	-38	-23	29	-6	64	84	880	67319	880	74846222
43	297	3847	-41	-24	28	-6	64	84	881	67419	881	74846226
42	290	3874	-38	-25	29	-5	67	85	882	67472	882	74846227
33	278	3838	-39	-23	26	-5	67	85	883	67572	883	74846229
40	292	3866	-38	-25	27	-6	72	82	884	67625	884	74846243
49	288	3863	-38	-23	27	-6	72	82	885	67725	885	74846243
37	296	3860	-39	-25	30	-6	68	80	886	67778	886	74846246
52	284	3874	-42	-22	29	-6	68	80	887	67878	887	74846247
29	281	3847	-41	-24	26	-5	67	87	888	67931	888	74846248
35	286	3865	-40	-22	31	-5	67	87	889	68031	889	74846250
39	291	3880	-39	-23	28	-5	71	79	890	68084	890	74846250
36	286	3855	-39	-22	30	-5	71	79	891	68184	891	74846267
52	289	3870	-41	-23	29	-9	61	89	892	68237	892	74846267
46	284	3873	-39	-22	28	-9	61	89	893	68337	893	74846270
43	291	3857	-37	-26	26	-7	65	83	894	68390	894	74846272
45	284	3870	-41	-26	27	-7	65	83	895	68490	895	74846273
55	277	3876	-41	-27	27	-1	65	77	896	68543	896	74846291
32	301	3859	-40	-24	28	-1	65	77	897	68643	897	74846292
46	295	3869	-40	-26	27	-2	68	90	898	68696	898	74846293
57	273	3868	-39	-24	28	-2	68	90	899	68796	899	74846295
34	297	3860	-38	-24	27	-6	72	80	900	68849	900	74846296
39	306	3861	-40	-25	30	-6	72	80	901	68949	901	74846316
43	288	3864	-37	-24	30	-6	70	84	902	69002	902	74846316
35	279	3869	-38	-26	28	-6	70	84	903	69102	903	74846320
38	285	3869	-38	-24	28	-2	66	84	904	69155	904	74846320
39	282	3871	-42	-24	27	-2	66	84	905	69255	905	74846323
50	277	3885	-38	-27	27	0	62	86	906	69308	906	74846341
41	293	3864	-41	-26	29	0	62	86	907	69408	907	74846341
55	287	3869	-38	-25	30	1	67	85	908	69461	908	74846345
47	296	3846	-37	-23	29	1	67	85	909	69561	909	74846345
56	290	3854	-36	-22	28	-10	66	80	910	69614	910	74846347
48	285	3863	-40	-22	31	-10	66	80	911	69714	911	74846366
58	283	3857	-38	-23	29	-8	66	86	912	69767	912	74846367
50	279	3871	-40	-22	28	-8	66	86	913	69867	913	74846370
38	297	3876	-39	-24	29	-5	69	85	914	69920	914	74846370
54	275	3889	-41	-24	28	-5	69	85	915	70020	915	74846372
34	296	3885	-37	-26	26	-3	63	85	916	70073	916	74846391
29	290	3856	-38	-25	29	-3	63	85	917	70173	917	74846391
49	294	3870	-39	-25	28	0	66	84	918	70226	918	74846395
44	289	3864	-41	-24	27	0	66	84	919	70326	919	74846395
35	284	3853	-40	-25	27	-2	64	80	920	70379	920	74846397
34	270	3870	-42	-26	29	-2	64	80	921	70479	921	74846416
49	282	3876	-39	-27	26	-4	62	86	922	70532	922	74846416
39	299	3854	-41	-25	30	-4	62	86	923	70632	923	74846420
41	287	3865	-41	-25	28	-4	66	84	924	70685	924	74846420
62	287	3877	-39	-24	27	-4	66	84	925	70785	925	74846422
36	293	3884	-39	-24	30	-1	63	83	926	70838	926	74846441
40	283	3859	-41	-22	28	-1	63	83	927	70938	927	74846442
56	280	3875	-37	-24	26	-7	67	85	928	70991	928	74846445
36	301	3840	-38	-22	27	-7	67	85	929	71091	929	74846445
47	281	3871	-39	-25	30	-4	68	78	930	71144	930	74846468
59	292	3849	-39	-23	29	-4	68	78	931	71244	931	74846468
56	296	3874	-38	-24	26	3	65	87	932	71297	932	74846471
54	288	3871	-39	-21	26	3	65	87	933	71397	933	74846472
46	292	3858	-38	-25	25	-4	66	82	934	71450	934	74846473
39	285	3865	-43	-25	26	-4	66	82	935	71550	935	74846477
46	270	3873	-41	-24	28	-3	71	85	936	71603	936	74846477
43	283	3876	-41	-24	28	-3	71	85	937	71703	937	74846492
27	277	3898	-40	-25	26	-1	65	89	938	71756	938	74846493
38	282	3858	-39	-21	27	-1	65	89	939	71856	939	74846494
39	283	3876	-37	-21	27	-12	66	80	940	71909	940	74846502
35	273	3885	-40	-23	27	-12	66	80	941	72009	941	74846503
64	279	3861	-39	-24	27	-7	67	87	942	72062	942	74846516
44	286	3870	-41	-25	25	-7	67	87	943	72162	943	74846517
59	305	3868	-39	-24	24	-8	70	84	944	72215	944	74846517
47	277	3876	-41	-22	28	-8	70	84	945	72315	945	74846527
43	279	3866	-37	-24	32	-2	68	84	946	72367	946	74846527
57	297	3883	-39	-25	28	-2	68	84	947	72467	947	74846542
46	262	3858	-38	-24	27	0	64	86	948	72520	948	74846543
38	289	3848	-42	-23	27	0	64	86	949	72620	949	74846544
38	299	3857	-39	-24	29	-3	69	83	950	72673	950	74846552
44	295	3870	-41	-22	25	-3	69	83	951	72773	951	74846553
43	298	3874	-38	-21	29	2	64	84	952	72826	952	74846555
35	291	3867	-37	-23	27	2	64	84	953	72926	953	74846568
49	299	3851	-37	-25	27	-3	69	89	954	72979	954	74846568
28	279	3878	-42	-23	28	-3	69	89	955	73079	955	74846576
49	291	3886	-39	-25	26	-4	64	82	956	73132	956	74846577
32	281	3882	-38	-21	25	-4	64	82	957	73232	957	74846579
51	284	3871	-39	-21	27	-7	65	89	958	73285	958	74846591
31	287	3867	-39	-23	27	-7	65	89	959	73385	959	74846592
54	275	3875	-40	-24	26	-6	66	80	960	73438	960	74846601
46	277	3861	-41	-25	31	-6	66	80	961	73538	961	74846602
49	282	3859	-38	-24	28	-4	66	84	962	73591	962	74846616
41	286	3857	-37	-21	24	-4	66	84	963	73691	963	74846616
30	285	3878	-40	-22	29	-6	66	84	964	73744	964	74846618
49	294	3871	-39	-22	27	-6	66	84	965	73844	965	74846626
40	285	3895	-39	-24	24	-4	68	86	966	73897	966	74846627
38	294	3877	-42	-23	29	-4	68	86	967	73997	967	74846641
43	288	3862	-40	-22	30	-2	62	84	968	74049	968	74846642
36	292	3866	-39	-24	25	-2	62	84	969	74150	969	74846644
52	277	3886	-38	-24	27	-1	67	81	970	74203	970	74846651
36	274	3886	-40	-23	29	-1	67	81	971	74303	971	74846652
46	280	3878	-39	-23	28	-9	69	85	972	74355	972	74846666
43	289	3870	-38	-21	28	-9	69	85	973	74455	973	74846666
46	280	3906	-40	-24	28	-6	66	82	974	74508	974	74846668
46	275	3866	-41	-26	26	-6	66	82	975	74608	975	74846675
44	293	3880	-39	-22	26	-2	68	80	976	74661	976	74846675
55	284	3875	-39	-25	29	-2	68	80	977	74761	977	74846691
46	285	3865	-39	-26	28	-4	64	88	978	74813	978	74846698
46	280	3846	-40	-22	27	-4	64	88	979	74913	979	74846699
34	282	3852	-39	-23	28	-4	66	82	980	74966	980	74846700
33	287	3856	-40	-22	28	-4	66	82	981	75066	981	74846700
35	289	3871	-38	-23	27	-4	68	80	982	75118	982	74846716
44	281	3872	-39	-22	28	-4	68	80	983	75218	983	74846716
42	283	3850	-38	-26	27	-4	70	86	984	75270	984	74846718
26	293	3851	-41	-21	25	-4	70	86	985	75370	985	74846724
42	284	3874	-38	-24	28	-1	67	83	986	75423	986	74846724
36	279	3871	-39	-21	28	-1	67	83	987	75523	987	74846741
27	281	3895	-41	-24	25	-4	66	88	988	75576	988	74846741
45	295	3869	-40	-22	28	-4	66	88	989	75676	989	74846745
36	299	3856	-38	-23	28	-8	68	86	990	75729	990	74846745
41	291	3865	-41	-24	26	-8	68	86	991	75829	991	74846745
25	282	3862	-40	-23	27	2	62	86	992	75882	992	74846766
66	293	3857	-37	-22	28	2	62	86	993	75982	993	74846766
53	272	3864	-37	-24	27	0	66	84	994	76035	994	74846770
41	284	3879	-38	-24	26	0	66	84	995	76135	995	74846770
48	285	3862	-39	-24	28	-3	67	79	996	76188	996	74846773
49	290	3861	-40	-22	26	-3	67	79	997	76288	997	74846791
29	303	3855	-38	-24	27	2	70	86	998	76341	998	74846791
36	294	3869	-39	-24	31	2	70	86	999	76441	999	74846794
41	285	3863	-39	-21	28	-5	63	77	1000	76494	1000	74846795
45	295	3874	-40	-23	25	-5	63	77	1001	76594	1001	74846798
43	276	3883	-36	-27	29	2	62	78	1002	76647	1002	74846816
60	283	3868	-38	-23	31	2	62	78	1003	76747	1003	74846816
32	284	3851	-39	-22	26	-2	68	86	1004	76800	1004	74846819
36	288	3865	-39	-22	27	-2	68	86	1005	76900	1005	74846820
40	295	3872	-40	-24	29	-2	72	86	1006	76953	1006	74846822
42	272	3870	-41	-24	26	-2	72	86	1007	77053	1007	74846868
41	288	3869	-38	-25	29	-5	69	89	1008	77106	1008	74846868
47	298	3864	-40	-22	29	-5	69	89	1009	77206	1009	74846872
43	302	3868	-39	-23	26	1	67	85	1010	77259	1010	74846872
51	289	3868	-39	-24	27	1	67	85	1011	77359	1011	74846875
47	266	3884	-36	-23	29	-3	65	79	1012	77412	1012	74846876
47	278	3869	-41	-22	25	-3	65	79	1013	77512	1013	74846876
47	286	3879	-39	-23	27	-6	70	78	1014	77565	1014	74846893
31	281	3877	-41	-20	28	-6	70	78	1015	77665	1015	74846893
28	280	3887	-38	-24	28	-4	70	80	1016	77718	1016	74846896
54	280	3855	-40	-26	27	-4	70	80	1017	77818	1017	74846897
44	281	3849	-40	-25	29	-4	60	86	1018	77871	1018	74846898
38	294	3867	-41	-26	29	-4	60	86	1019	77971	1019	74846900
55	281	3880	-39	-24	27	-4	66	86	1020	78024	1020	74846901
25	280	3876	-40	-20	29	-4	66	86	1021	78124	1021	74846916
30	296	3890	-38	-23	27	-2	64	82	1022	78177	1022	74846916
40	289	3867	-41	-21	25	-2	64	82	1023	78277	1023	74846918
52	282	3887	-41	-25	30	-1	61	93	1024	78330	1024	74846919
29	279	3865	-40	-22	31	-1	61	93	1025	78430	1025	74846920
35	299	3866	-38	-26	26	-2	66	86	1026	78483	1026	74846941
40	289	3862	-41	-25	28	-2	66	86	1027	78583	1027	74846941
32	307	3862	-39	-21	27	-7	61	87	1028	78636	1028	74846943
35	269	3868	-40	-24	25	-7	61	87	1029	78736	1029	74846945
38	279	3864	-39	-24	28	-4	70	84	1030	78789	1030	74846945
52	297	3864	-40	-27	29	-4	70	84	1031	78889	1031	74846966
44	290	3850	-37	-23	27	0	62	80	1032	78942	1032	74846966
50	279	3871	-39	-23	27	0	62	80	1033	79042	1033	74846968
45	303	3896	-38	-23	26	-2	66	88	1034	79095	1034	74846970
41	297	3870	-40	-23	25	-2	66	88	1035	79195	1035	74846970
49	287	3871	-38	-21	25	-8	66	82	1036	79248	1036	74846977
45	289	3866	-40	-24	29	-8	66	82	1037	79348	1037	74846977
49	281	3878	-39	-23	29	0	60	78	1038	79401	1038	74846991
36	292	3859	-42	-23	28	0	60	78	1039	79501	1039	74846992
51	304	3881	-39	-25	30	0	64	84	1040	79554	1040	74846992
41	280	3880	-39	-27	30	0	64	84	1041	79654	1041	74847002
32	299	3856	-41	-24	26	-1	67	89	1042	79707	1042	74847002
50	296	3857	-38	-24	30	-1	67	89	1043	79807	1043	74847004
52	271	3857	-40	-24	28	0	68	90	1044	79860	1044	74847017
51	295	3861	-40	-20	27	0	68	90	1045	79960	1045	74847017
39	287	3864	-39	-24	27	-4	70	82	1046	80013	1046	74847028
50	294	3860	-40	-23	29	-4	70	82	1047	80113	1047	74847028
39	281	3850	-37	-24	26	5	65	85	1048	80166	1048	74847042
42	290	3874	-38	-24	27	5	65	85	1049	80266	1049	74847042
35	286	3865	-41	-24	30	-5	67	83	1050	80319	1050	74847044
54	296	3871	-41	-23	26	-5	67	83	1051	80419	1051	74847052
46	294	3868	-39	-25	28	0	68	84	1052	80472	1052	74847052
39	289	3868	-40	-25	29	0	68	84	1053	80572	1053	74847067
51	300	3862	-40	-25	27	-1	59	83	1054	80625	1054	74847067
44	300	3863	-38	-23	28	-1	59	83	1055	80725	1055	74847069
51	281	3854	-35	-23	28	-2	60	86	1056	80778	1056	74847077
49	281	3868	-39	-24	27	-2	60	86	1057	80878	1057	74847077
59	292	3868	-38	-23	27	-3	63	85	1058	80931	1058	74847092
45	298	3879	-40	-23	31	-3	63	85	1059	81031	1059	74847092
39	279	3874	-37	-25	28	-2	64	88	1060	81084	1060	74847095
52	279	3862	-36	-21	28	-2	64	88	1061	81184	1061	74847101
33	285	3869	-38	-22	30	-4	70	84	1062	81237	1062	74847101
46	287	3866	-40	-23	28	-4	70	84	1063	81337	1063	74847117
56	283	3851	-41	-23	27	-2	64	86	1064	81390	1064	74847117
42	282	3872	-41	-23	27	-2	64	86	1065	81490	1065	74847119
41	294	3862	-38	-24	27	-4	68	80	1066	81543	1066	74847126
32	274	3860	-40	-21	26	-4	68	80	1067	81643	1067	74847126
50	303	3864	-41	-25	28	-5	61	83	1068	81696	1068	74847142
42	300	3847	-39	-24	28	-5	61	83	1069	81796	1069	74847142
39	301	3877	-36	-26	26	-1	71	83	1070	81849	1070	74847144
40	298	3866	-40	-22	30	-1	71	83	1071	81949	1071	74847147
69	291	3896	-38	-23	28	-2	64	82	1072	82002	1072	74847147
37	278	3866	-40	-23	27	-2	64	82	1073	82102	1073	74847169
30	279	3864	-39	-27	30	-7	65	89	1074	82155	1074	74847170
21	283	3851	-43	-25	29	-7	65	89	1075	82255	1075	74847173
45	289	3876	-40	-21	27	-1	67	81	1076	82308	1076	74847174
49	298	3857	-40	-20	27	-1	67	81	1077	82408	1077	74847176
34	290	3863	-40	-23	30	0	66	82	1078	82461	1078	74847194
47	291	3879	-40	-26	28	0	66	82	1079	82561	1079	74847194
36	287	3885	-39	-27	27	0	64	88	1080	82614	1080	74847198
43	297	3872	-37	-24	30	0	64	88	1081	82714	1081	74847198
45	281	3886	-40	-22	29	-3	69	85	1082	82767	1082	74847200
32	293	3863	-40	-22	26	-3	69	85	1083	82867	1083	74847218
38	287	3862	-40	-22	32	-5	65	85	1084	82920	1084	74847218
49	277	3863	-40	-25	30	-5	65	85	1085	83020	1085	74847222
35	301	3864	-38	-24	27	-5	73	79	1086	83073	1086	74847222
30	284	3867	-40	-24	27	-5	73	79	1087	83173	1087	74847224
46	303	3863	-39	-24	29	-5	67	89	1088	83226	1088	74847243
62	291	3877	-41	-25	26	-5	67	89	1089	83326	1089	74847244
31	293	3856	-37	-23	28	-4	66	84	1090	83379	1090	74847249
41	274	3882	-37	-23	27	-4	66	84	1091	83479	1091	74847250
46	295	3865	-38	-22	28	-1	67	79	1092	83532	1092	74847252
59	291	3890	-38	-22	28	-1	67	79	1093	83632	1093	74847268
30	283	3888	-38	-23	29	-4	66	88	1094	83685	1094	74847268
53	279	3857	-40	-23	27	-4	66	88	1095	83785	1095	74847272
43	285	3870	-37	-24	26	-4	68	88	1096	83838	1096	74847272
53	289	3875	-40	-21	28	-4	68	88	1097	83938	1097	74847274
31	298	3862	-39	-23	28	0	62	86	1098	83991	1098	74847292
46	296	3873	-37	-21	28	0	62	86	1099	84091	1099	74847292
45	289	3861	-38	-23	29	-3	69	95	1100	84144	1100	74847295
48	298	3850	-41	-23	28	-3	69	95	1101	84244	1101	74847296
47	299	3868	-38	-25	29	3	65	83	1102	84297	1102	74847317
35	298	3904	-39	-24	27	3	65	83	1103	84397	1103	74847318
34	277	3871	-35	-26	29	-5	67	81	1104	84450	1104	74847318
44	298	3861	-39	-24	26	-5	67	81	1105	84550	1105	74847320
32	292	3866	-39	-24	28	-1	61	85	1106	84603	1106	74847321
37	292	3859	-40	-23	25	-1	61	85	1107	84703	1107	74847342
50	291	3886	-41	-23	26	0	62	84	1108	84756	1108	74847342
44	281	3853	-38	-23	29	0	62	84	1109	84856	1109	74847344
50	294	3880	-38	-22	28	-2	64	88	1110	84909	1110	74847345
49	264	3880	-38	-23	26	-2	64	88	1111	85009	1111	74847346
47	286	3876	-40	-23	29	-4	62	86	1112	85062	1112	74847367
39	291	3881	-39	-23	28	-4	62	86	1113	85162	1113	74847367
44	271	3860	-39	-24	27	1	61	85	1114	85215	1114	74847369
38	299	3874	-42	-24	29	1	61	85	1115	85315	1115	74847370
47	295	3859	-36	-24	29	-4	68	76	1116	85368	1116	74847371
57	299	3882	-37	-23	27	-4	68	76	1117	85468	1117	74847392
48	293	3871	-39	-22	27	-5	67	85	1118	85521	1118	74847392
33	289	3864	-41	-21	28	-5	67	85	1119	85621	1119	74847394
32	275	3876	-40	-24	23	-6	70	86	1120	85674	1120	74847395
39	294	3882	-42	-24	27	-6	70	86	1121	85774	1121	74847396
38	285	3855	-40	-23	31	-3	71	81	1122	85827	1122	74847417
53	287	3877	-38	-25	29	-3	71	81	1123	85927	1123	74847417
38	288	3850	-38	-23	25	-7	59	87	1124	85980	1124	74847419
35	300	3871	-39	-23	28	-7	59	87	1125	86080	1125	74847420
54	280	3866	-40	-24	26	1	63	83	1126	86133	1126	74847421
20	290	3874	-40	-24	29	1	63	83	1127	86233	1127	74847428
38	285	3873	-38	-23	32	-4	66	82	1128	86286	1128	74847429
39	293	3870	-37	-22	28	-4	66	82	1129	86386	1129	74847442
35	278	3861	-38	-23	26	-3	65	85	1130	86439	1130	74847443
37	290	3856	-38	-20	26	-3	65	85	1131	86539	1131	74847444
36	280	3891	-37	-25	30	2	74	88	1132	86592	1132	74847453
41	282	3889	-40	-22	27	2	74	88	1133	86692	1133	74847453
36	269	3865	-38	-25	29	-3	63	85	1134	86745	1134	74847467
37	284	3862	-40	-23	29	-3	63	85	1135	86845	1135	74847467
47	295	3880	-38	-24	26	-1	65	85	1136	86898	1136	74847469
26	294	3856	-42	-21	27	-1	65	85	1137	86998	1137	74847500
54	277	3870	-41	-22	27	-5	65	81	1138	87051	1138	74847501
38	288	3867	-41	-23	27	-5	65	81	1139	87151	1139	74847518
40	285	3877	-40	-24	28	-1	67	87	1140	87204	1140	74847518
44	283	3856	-40	-23	30	-1	67	87	1141	87304	1141	74847520
41	276	3893	-37	-27	29	-6	68	78	1142	87357	1142	74847522
57	296	3858	-41	-22	27	-6	68	78	1143	87457	1143	74847522
40	293	3860	-39	-25	27	-2	70	86	1144	87510	1144	74847525
46	274	3880	-40	-24	29	-2	70	86	1145	87610	1145	74847525
48	295	3870	-40	-22	28	-4	64	86	1146	87663	1146	74847528
32	291	3876	-38	-25	29	-4	64	86	1147	87763	1147	74847543
35	286	3890	-37	-25	28	-3	69	85	1148	87816	1148	74847543
50	285	3873	-41	-23	26	-3	69	85	1149	87916	1149	74847546
33	300	3867	-39	-22	28	-5	59	87	1150	87969	1150	74847547
34	279	3853	-37	-22	28	-5	59	87	1151	88069	1151	74847549
47	300	3870	-38	-22	29	1	69	83	1152	88122	1152	74847550
37	289	3908	-39	-20	32	1	69	83	1153	88222	1153	74847551
42	299	3879	-37	-23	31	-5	65	83	1154	88275	1154	74847568
34	296	3894	-38	-24	27	-5	65	83	1155	88375	1155	74847569
59	293	3876	-38	-20	30	3	67	91	1156	88428	1156	74847570
25	290	3868	-38	-20	28	3	67	91	1157	88528	1157	74847572
33	282	3855	-41	-25	27	-7	67	87	1158	88581	1158	74847572
54	285	3862	-40	-23	29	-7	67	87	1159	88681	1159	74847593
30	286	3847	-39	-22	30	-3	71	87	1160	88734	1160	74847593
43	272	3876	-39	-22	26	-3	71	87	1161	88834	1161	74847596
44	279	3866	-40	-21	26	-9	63	83	1162	88887	1162	74847597
39	273	3848	-41	-21	27	-9	63	83	1163	88987	1163	74847597
27	272	3853	-39	-24	26	-3	67	83	1164	89040	1164	74847617
36	279	3880	-40	-23	25	-3	67	83	1165	89140	1165	74847617
35	286	3871	-40	-25	28	-3	63	81	1166	89193	1166	74847620
49	292	3866	-41	-25	26	-3	63	81	1167	89293	1167	74847620
50	280	3876	-37	-24	26	-6	74	82	1168	89346	1168	74847624
36	281	3864	-41	-23	28	-6	74	82	1169	89446	1169	74847642
43	294	3885	-40	-23	31	-5	69	87	1170	89499	1170	74847642
34	300	3878	-40	-22	28	-5	69	87	1171	89599	1171	74847645
44	294	3889	-36	-22	29	-2	72	84	1172	89652	1172	74847646
48	269	3871	-40	-22	31	-2	72	84	1173	89752	1173	74847649
46	284	3881	-38	-27	29	-7	65	89	1174	89805	1174	74847667
44	293	3859	-41	-24	28	-7	65	89	1175	89905	1175	74847667
45	295	3870	-37	-24	29	-3	65	83	1176	89958	1176	74847670
33	289	3864	-39	-22	27	-3	65	83	1177	90058	1177	74847670
47	278	3877	-39	-26	26	-3	71	77	1178	90111	1178	74847674
57	283	3876	-41	-21	32	-3	71	77	1179	90211	1179	74847692
28	286	3893	-39	-23	25	-3	69	79	1180	90264	1180	74847692
37	291	3876	-40	-23	26	-3	69	79	1181	90364	1181	74847695
43	288	3858	-39	-24	30	-5	69	83	1182	90417	1182	74847696
45	269	3885	-42	-23	25	-5	69	83	1183	90517	1183	74847698
58	295	3857	-38	-23	26	-2	64	84	1184	90570	1184	74847717
43	300	3863	-39	-26	27	-2	64	84	1185	90670	1185	74847717
49	289	3880	-37	-24	27	-2	68	88	1186	90723	1186	74847720
30	289	3869	-41	-24	27	-2	68	88	1187	90823	1187	74847721
50	288	3875	-41	-23	30	-3	67	87	1188	90876	1188	74847742
44	286	3855	-41	-22	27	-3	67	87	1189	90976	1189	74847742
44	282	3880	-40	-25	27	0	66	84	1190	91029	1190	74847744
41	282	3866	-40	-21	29	0	66	84	1191	91129	1191	74847745
46	276	3875	-40	-23	28	-3	73	89	1192	91182	1192	74847745
39	284	3854	-40	-21	27	-3	73	89	1193	91282	1193	74847767
53	287	3875	-41	-23	26	-3	63	85	1194	91335	1194	74847767
66	275	3884	-39	-21	26	-3	63	85	1195	91435	1195	74847769
49	280	3869	-37	-21	27	-5	61	89	1196	91488	1196	74847770
46	307	3860	-41	-24	28	-5	61	89	1197	91588	1197	74847771
47	295	3857	-39	-24	30	-3	65	83	1198	91641	1198	74847792
30	290	3854	-40	-23	26	-3	65	83	1199	91741	1199	74847792
37	290	3865	-40	-22	27	-3	67	85	1200	91794	1200	74847794
44	299	3872	-42	-23	29	-3	67	85	1201	91894	1201	74847795
42	293	3868	-40	-25	27	-7	65	87	1202	91947	1202	74847796
41	297	3870	-39	-19	26	-7	65	87	1203	92047	1203	74847816
43	287	3866	-38	-25	29	0	60	86	1204	92100	1204	74847817
34	282	3877	-41	-22	27	0	60	86	1205	92200	1205	74847819
48	291	3882	-41	-24	26	0	64	86	1206	92253	1206	74847820
28	268	3875	-39	-23	28	0	64	86	1207	92353	1207	74847821
32	287	3864	-36	-24	28	2	72	84	1208	92406	1208	74847842
30	289	3867	-38	-24	26	2	72	84	1209	92506	1209	74847842
37	290	3875	-38	-24	30	2	66	86	1210	92559	1210	74847844
44	292	3876	-40	-22	29	2	66	86	1211	92659	1211	74847845
22	292	3857	-38	-22	28	-4	68	84	1212	92712	1212	74847846
34	279	3875	-40	-23	29	-4	68	84	1213	92812	1213	74847869
44	275	3852	-40	-23	28	-2	62	86	1214	92865	1214	74847869
45	279	3853	-42	-25	24	-2	62	86	1215	92965	1215	74847871
28	283	3866	-41	-26	27	2	68	84	1216	93018	1216	74847873
38	273	3888	-38	-23	29	2	68	84	1217	93118	1217	74847873
31	286	3866	-37	-21	24	0	64	80	1218	93171	1218	74847878
45	291	3880	-41	-24	27	0	64	80	1219	93271	1219	74847878
46	292	3882	-42	-25	28	-4	74	80	1220	93324	1220	74847893
38	287	3860	-40	-25	28	-4	74	80	1221	93424	1221	74847893
42	298	3879	-40	-24	27	1	65	87	1222	93477	1222	74847895
52	282	3863	-40	-21	27	1	65	87	1223	93577	1223	74847903
53	290	3875	-37	-25	29	-1	65	83	1224	93630	1224	74847904
34	290	3858	-41	-24	26	-1	65	83	1225	93730	1225	74847918
43	280	3876	-37	-23	28	2	64	82	1226	93783	1226	74847918
46	277	3869	-39	-22	29	2	64	82	1227	93883	1227	74847921
51	289	3848	-39	-24	25	-3	71	81	1228	93936	1228	74847928
51	286	3870	-41	-24	28	-3	71	81	1229	94036	1229	74847928
41	288	3878	-39	-25	27	-6	66	82	1230	94089	1230	74847941
30	287	3870	-38	-22	28	-6	66	82	1231	94189	1231	74847942
45	293	3866	-38	-21	31	1	63	85	1232	94242	1232	74847944
36	300	3856	-38	-22	28	1	63	85	1233	94342	1233	74847952
39	274	3851	-38	-24	27	-6	68	86	1234	94395	1234	74847952
42	289	3853	-41	-23	27	-6	68	86	1235	94495	1235	74847966
39	292	3902	-36	-23	29	2	68	90	1236	94548	1236	74847967
48	272	3887	-39	-21	26	2	68	90	1237	94648	1237	74847970
37	299	3894	-40	-24	26	0	68	80	1238	94701	1238	74847977
61	295	3893	-43	-23	27	0	68	80	1239	94801	1239	74847978
50	284	3869	-40	-24	27	-7	67	83	1240	94854	1240	74847991
34	279	3877	-41	-21	27	-7	67	83	1241	94954	1241	74847992
35	286	3880	-38	-25	30	0	64	88	1242	95007	1242	74847994
38	291	3866	-38	-20	27	0	64	88	1243	95107	1243	74847999
27	304	3855	-37	-23	26	-2	70	84	1244	95160	1244	74847999
46	272	3862	-40	-22	30	-2	70	84	1245	95260	1245	74848016
34	299	3874	-38	-23	26	-1	65	85	1246	95313	1246	74848017
35	290	3882	-38	-22	28	-1	65	85	1247	95413	1247	74848021
54	290	3869	-37	-22	30	-1	65	87	1248	95466	1248	74848022
60	284	3859	-38	-23	27	-1	65	87	1249	95566	1249	74848025
72	290	3865	-39	-22	26	-3	63	87	1250	95619	1250	74848042
48	296	3865	-43	-22	28	-3	63	87	1251	95719	1251	74848042
42	299	3866	-41	-24	29	-1	65	85	1252	95772	1252	74848046
39	278	3884	-40	-22	28	-1	65	85	1253	95872	1253	74848047
33	285	3882	-39	-26	28	-9	69	79	1254	95925	1254	74848050
36	289	3861	-42	-23	27	-9	69	79	1255	96025	1255	74848066
58	304	3890	-37	-25	27	-8	62	88	1256	96078	1256	74848067
45	292	3855	-41	-24	29	-8	62	88	1257	96178	1257	74848070
61	281	3903	-38	-24	30	-2	72	80	1258	96231	1258	74848070
38	284	3874	-41	-21	27	-2	72	80	1259	96331	1259	74848076
37	291	3886	-40	-23	29	-4	66	84	1260	96384	1260	74848091
40	289	3859	-41	-23	30	-4	66	84	1261	96484	1261	74848092
36	301	3873	-39	-25	26	-2	60	86	1262	96537	1262	74848095
39	293	3878	-40	-21	28	-2	60	86	1263	96637	1263	74848096
53	279	3875	-36	-22	30	-1	69	83	1264	96690	1264	74848099
54	282	3874	-39	-26	25	-1	69	83	1265	96790	1265	74848144
32	293	3877	-38	-24	29	0	64	84	1266	96843	1266	74848145
34	274	3875	-40	-24	28	0	64	84	1267	96943	1267	74848148
47	274	3862	-39	-22	27	-5	67	85	1268	96996	1268	74848148
38	289	3878	-41	-21	26	-5	67	85	1269	97096	1269	74848150
41	285	3862	-38	-25	30	0	70	82	1270	97149	1270	74848152
39	286	3849	-39	-25	28	0	70	82	1271	97249	1271	74848152
44	272	3856	-37	-24	28	-3	73	77	1272	97302	1272	74848168
49	291	3892	-41	-22	31	-3	73	77	1273	97402	1273	74848168
45	280	3853	-40	-22	27	2	74	80	1274	97455	1274	74848171
41	294	3895	-41	-24	27	2	74	80	1275	97555	1275	74848172
65	288	3855	-38	-23	28	-1	65	83	1276	97608	1276	74848174
50	291	3870	-44	-23	28	-1	65	83	1277	97708	1277	74848175
55	294	3868	-39	-25	26	-4	68	86	1278	97761	1278	74848176
31	283	3869	-40	-24	30	-4	68	86	1279	97861	1279	74848193
32	290	3875	-39	-22	29	6	68	86	1280	97914	1280	74848193
38	289	3860	-38	-25	27	6	68	86	1281	98014	1281	74848195
34	288	3852	-37	-24	28	-6	64	86	1282	98067	1282	74848197
41	291	3871	-38	-21	29	-6	64	86	1283	98167	1283	74848197
41	289	3866	-40	-25	26	-5	67	79	1284	98220	1284	74848218
39	289	3873	-44	-21	26	-5	67	79	1285	98320	1285	74848218
50	299	3873	-40	-24	26	-5	61	83	1286	98373	1286	74848220
56	279	3856	-39	-25	27	-5	61	83	1287	98473	1287	74848221
46	279	3860	-37	-24	26	0	70	84	1288	98526	1288	74848222
45	284	3868	-38	-24	29	0	70	84	1289	98626	1289	74848242
52	283	3863	-39	-24	27	-1	71	85	1290	98679	1290	74848243
44	292	3879	-42	-21	27	-1	71	85	1291	98779	1291	74848245
44	291	3860	-40	-23	29	-1	67	85	1292	98832	1292	74848246
48	289	3866	-38	-22	28	-1	67	85	1293	98932	1293	74848247
44	293	3853	-37	-24	27	-3	65	87	1294	98985	1294	74848268
47	286	3856	-39	-25	30	-3	65	87	1295	99085	1295	74848268
45	295	3871	-38	-26	28	-2	66	88	1296	99138	1296	74848271
42	287	3861	-38	-24	25	-2	66	88	1297	99238	1297	74848271
35	304	3858	-40	-22	28	-4	74	82	1298	99291	1298	74848272
38	298	3855	-41	-21	30	-4	74	82	1299	99391	1299	74848292
42	298	3871	-38	-23	27	-4	66	76	1300	99444	1300	74848292
40	292	3867	-39	-23	29	-4	66	76	1301	99544	1301	74848295
51	300	3874	-40	-25	29	1	63	85	1302	99597	1302	74848296
30	293	3855	-38	-24	26	1	63	85	1303	99697	1303	74848298
46	298	3890	-37	-24	27	-4	66	78	1304	99750	1304	74848316
39	285	3883	-41	-25	28	-4	66	78	1305	99850	1305	74848317
52	297	3854	-39	-21	26	-8	70	86	1306	99903	1306	74848320
43	276	3868	-39	-23	29	-8	70	86	1307	100003	1307	74848321
52	276	3856	-37	-21	31	-3	71	81	1308	100056	1308	74848323
45	291	3879	-39	-23	28	-3	71	81	1309	100156	1309	74848328
35	308	3850	-37	-22	26	-1	65	83	1310	100209	1310	74848328
46	290	3847	-41	-21	30	-1	65	83	1311	100309	1311	74848341
44	278	3867	-37	-24	27	-5	61	85	1312	100362	1312	74848342
51	292	3856	-37	-23	24	-5	61	85	1313	100462	1313	74848344
30	292	3877	-37	-22	29	-7	69	83	1314	100515	1314	74848378
43	301	3861	-40	-22	28	-7	69	83	1315	100615	1315	74848378
43	281	3874	-40	-22	29	-4	64	80	1316	100668	1316	74848381
28	286	3867	-39	-22	29	-4	64	80	1317	100768	1317	74848382
49	286	3878	-39	-22	30	1	65	79	1318	100821	1318	74848384
46	302	3867	-40	-24	28	1	65	79	1319	100921	1319	74848385
54	302	3865	-39	-23	29	-7	63	79	1320	100974	1320	74848385
41	288	3873	-37	-20	30	-7	63	79	1321	101074	1321	74848389
35	293	3853	-40	-23	25	-5	65	85	1322	101127	1322	74848390
36	287	3841	-42	-22	28	-5	65	85	1323	101227	1323	74848403
48	288	3857	-35	-22	28	0	58	88	1324	101280	1324	74848403
40	289	3865	-36	-21	27	0	58	88	1325	101380	1325	74848403
48	296	3885	-39	-24	26	-2	74	86	1326	101433	1326	74848413
46	286	3830	-40	-23	29	-2	74	86	1327	101533	1327	74848413
55	289	3861	-39	-21	27	0	64	88	1328	101586	1328	74848428
31	300	3867	-40	-23	25	0	64	88	1329	101686	1329	74848428
37	266	3850	-40	-24	31	-2	64	84	1330	101739	1330	74848430
38	279	3863	-38	-20	28	-2	64	84	1331	101839	1331	74848438
47	284	3870	-38	-23	28	-6	70	82	1332	101892	1332	74848438
46	278	3869	-40	-23	30	-6	70	82	1333	101992	1333	74848453
33	283	3875	-39	-21	28	-4	60	88	1334	102045	1334	74848453
40	290	3857	-40	-23	27	-4	60	88	1335	102145	1335	74848455
38	289	3881	-41	-23	28	-5	63	83	1336	102198	1336	74848461
47	279	3868	-39	-21	27	-5	63	83	1337	102298	1337	74848462
34	285	3862	-38	-23	25	-1	73	87	1338	102351	1338	74848478
41	292	3877	-39	-26	28	-1	73	87	1339	102451	1339	74848478
56	292	3887	-39	-21	28	-2	70	88	1340	102504	1340	74848480
36	277	3896	-40	-25	26	-2	70	88	1341	102604	1341	74848486
21	273	3881	-36	-23	26	-4	68	86	1342	102657	1342	74848488
27	279	3853	-39	-26	28	-4	68	86	1343	102757	1343	74848503
32	290	3853	-38	-23	27	-4	66	86	1344	102810	1344	74848504
35	298	3875	-40	-25	28	-4	66	86	1345	102910	1345	74848506
41	294	3869	-40	-27	29	-2	70	84	1346	102963	1346	74848512
38	298	3871	-42	-23	28	-2	70	84	1347	103063	1347	74848512
50	285	3856	-40	-23	29	-5	71	81	1348	103116	1348	74848527
48	295	3872	-38	-22	28	-5	71	81	1349	103216	1349	74848528
48	287	3909	-37	-23	25	-3	63	83	1350	103269	1350	74848531
41	293	3879	-42	-23	28	-3	63	83	1351	103369	1351	74848531
28	276	3868	-39	-25	31	-6	70	80	1352	103422	1352	74848532
30	294	3866	-41	-25	28	-6	70	80	1353	103522	1353	74848555
37	297	3848	-38	-23	28	-3	61	89	1354	103575	1354	74848555
48	288	3861	-42	-22	30	-3	61	89	1355	103675	1355	74848559
54	289	3876	-40	-23	29	-3	69	85	1356	103728	1356	74848560
38	285	3870	-42	-22	26	-3	69	85	1357	103828	1357	74848561
46	290	3888	-37	-23	29	-6	70	82	1358	103881	1358	74848579
56	289	3860	-40	-24	31	-6	70	82	1359	103981	1359	74848579
35	281	3860	-39	-24	26	-5	63	89	1360	104034	1360	74848582
47	287	3862	-43	-23	28	-5	63	89	1361	104134	1361	74848583
46	287	3853	-40	-23	30	-1	71	83	1362	104187	1362	74848585
59	289	3866	-37	-26	28	-1	71	83	1363	104287	1363	74848604
45	278	3866	-38	-25	28	-6	64	86	1364	104340	1364	74848604
28	293	3889	-40	-22	28	-6	64	86	1365	104440	1365	74848608
26	280	3864	-39	-25	27	-4	66	82	1366	104493	1366	74848608
37	283	3859	-40	-24	28	-4	66	82	1367	104593	1367	74848610
33	289	3872	-39	-25	29	-2	66	82	1368	104646	1368	74848629
43	265	3854	-38	-24	29	-2	66	82	1369	104746	1369	74848629
52	288	3873	-38	-22	27	0	66	88	1370	104799	1370	74848632
47	271	3850	-40	-23	28	0	66	88	1371	104899	1371	74848633
54	279	3864	-39	-28	27	4	72	86	1372	104952	1372	74848635
49	271	3847	-38	-22	28	4	72	86	1373	105052	1373	74848653
27	287	3869	-38	-23	30	-1	63	91	1374	105105	1374	74848653
55	286	3889	-40	-25	28	-1	63	91	1375	105205	1375	74848656
46	277	3869	-39	-26	27	-4	68	84	1376	105258	1376	74848656
45	276	3858	-41	-24	30	-4	68	84	1377	105358	1377	74848659
45	284	3896	-38	-26	26	-3	65	85	1378	105411	1378	74848678
48	292	3870	-39	-20	27	-3	65	85	1379	105511	1379	74848678
50	281	3882	-37	-23	29	-1	65	89	1380	105564	1380	74848684
28	291	3887	-39	-24	28	-1	65	89	1381	105664	1381	74848684
43	279	3883	-37	-20	28	-5	69	79	1382	105717	1382	74848702
33	297	3880	-38	-23	24	-5	69	79	1383	105817	1383	74848703
51	288	3878	-40	-25	28	-6	68	92	1384	105870	1384	74848704
42	283	3876	-40	-26	26	-6	68	92	1385	105970	1385	74848706
47	285	3868	-38	-22	29	-3	69	89	1386	106023	1386	74848707
33	290	3855	-41	-25	29	-3	69	89	1387	106123	1387	74848728
26	288	3873	-41	-26	29	-1	67	81	1388	106176	1388	74848728
33	285	3850	-38	-24	26	-1	67	81	1389	106276	1389	74848730
51	286	3873	-38	-24	28	-4	60	82	1390	106329	1390	74848731
43	286	3851	-41	-23	27	-4	60	82	1391	106429	1391	74848732
48	271	3882	-39	-26	26	-2	70	82	1392	106482	1392	74848753
44	283	3882	-40	-23	28	-2	70	82	1393	106582	1393	74848753
38	288	3864	-37	-22	26	1	67	87	1394	106635	1394	74848755
27	294	3856	-42	-23	27	1	67	87	1395	106735	1395	74848781
45	299	3854	-38	-25	27	0	70	80	1396	106788	1396	74848782
45	285	3861	-37	-24	27	0	70	80	1397	106888	1397	74848785
38	292	3865	-35	-24	29	1	67	83	1398	106941	1398	74848785
36	294	3889	-40	-24	30	1	67	83	1399	107041	1399	74848788
40	295	3848	-38	-23	26	-4	68	82	1400	107094	1400	74848789
34	282	3849	-42	-21	27	-4	68	82	1401	107194	1401	74848789
40	301	3877	-39	-22	28	-3	65	83	1402	107247	1402	74848804
45	296	3857	-39	-23	29	-3	65	83	1403	107347	1403	74848804
30	287	3880	-38	-25	28	-4	66	82	1404	107400	1404	74848806
50	297	3858	-41	-22	28	-4	66	82	1405	107500	1405	74848808
48	291	3862	-40	-22	28	-8	66	88	1406	107553	1406	74848808
43	278	3852	-39	-23	27	-8	66	88	1407	107653	1407	74848812
49	283	3850	-39	-25	27	-8	64	84	1408	107706	1408	74848813
36	290	3861	-40	-24	29	-8	64	84	1409	107806	1409	74848815
44	290	3897	-39	-25	27	1	61	93	1410	107859	1410	74848829
48	293	3882	-40	-22	26	1	61	93	1411	107959	1411	74848830
39	289	3860	-39	-23	27	-5	71	83	1412	108012	1412	74848839
41	292	3861	-39	-24	27	-5	71	83	1413	108112	1413	74848840
54	297	3860	-41	-23	27	0	62	86	1414	108165	1414	74848854
40	292	3874	-42	-24	27	0	62	86	1415	108265	1415	74848854
40	285	3867	-39	-26	27	-3	61	85	1416	108318	1416	74848856
38	285	3877	-39	-23	28	-3	61	85	1417	108418	1417	74848862
39	280	3876	-38	-23	31	-6	66	84	1418	108471	1418	74848863
44	308	3891	-39	-24	26	-6	66	84	1419	108571	1419	74848880
40	293	3866	-36	-23	27	-5	71	89	1420	108624	1420	74848880
36	286	3872	-39	-22	30	-5	71	89	1421	108724	1421	74848882
49	295	3880	-39	-24	29	-3	71	87	1422	108777	1422	74848887
47	276	3852	-37	-23	27	-3	71	87	1423	108877	1423	74848892
57	293	3867	-39	-25	29	-3	63	87	1424	108930	1424	74848904
52	295	3863	-42	-25	28	-3	63	87	1425	109030	1425	74848905
51	303	3856	-38	-27	26	-4	64	86	1426	109083	1426	74848906
34	290	3844	-42	-25	29	-4	64	86	1427	109183	1427	74848911
51	277	3857	-39	-23	31	0	70	84	1428	109236	1428	74848912
25	288	3853	-41	-24	30	0	70	84	1429	109336	1429	74848929
41	293	3864	-40	-22	28	1	59	87	1430	109389	1430	74848929
59	275	3879	-39	-22	30	1	59	87	1431	109489	1431	74848931
35	281	3869	-39	-23	28	-5	67	83	1432	109542	1432	74848936
30	294	3866	-39	-23	29	-5	67	83	1433	109642	1433	74848937
31	274	3870	-41	-22	29	-3	69	85	1434	109695	1434	74848954
49	280	3881	-40	-23	25	-3	69	85	1435	109795	1435	74848954
46	292	3886	-39	-25	25	-2	62	84	1436	109848	1436	74848956
43	288	3878	-39	-23	29	-2	62	84	1437	109948	1437	74848961
46	292	3879	-38	-26	29	-6	70	80	1438	110001	1438	74848962
54	292	3859	-40	-24	30	-6	70	80	1439	110101	1439	74848978
51	288	3893	-36	-26	29	-3	65	89	1440	110154	1440	74848978
43	266	3881	-40	-22	29	-3	65	89	1441	110254	1441	74848981
46	295	3858	-42	-25	27	0	68	86	1442	110307	1442	74848982
51	293	3878	-40	-24	31	0	68	86	1443	110407	1443	74848983
37	280	3889	-41	-23	29	-10	68	82	1444	110460	1444	74849002
32	283	3881	-42	-22	28	-10	68	82	1445	110560	1445	74849003
39	292	3880	-41	-24	28	-2	62	88	1446	110613	1446	74849006
37	280	3868	-41	-27	26	-2	62	88	1447	110713	1447	74849006
44	293	3857	-40	-23	27	-3	69	81	1448	110766	1448	74849010
50	299	3888	-40	-23	28	-3	69	81	1449	110866	1449	74849027
41	289	3853	-38	-23	29	0	68	84	1450	110919	1450	74849028
30	294	3864	-39	-19	28	0	68	84	1451	111019	1451	74849031
40	287	3878	-38	-24	27	0	66	86	1452	111072	1452	74849032
31	298	3855	-42	-24	28	0	66	86	1453	111172	1453	74849035
44	296	3861	-40	-26	28	-2	68	80	1454	111225	1454	74849052
46	292	3881	-40	-22	29	-2	68	80	1455	111325	1455	74849053
33	279	3872	-39	-22	28	-6	68	80	1456	111378	1456	74849056
50	295	3848	-40	-26	26	-6	68	80	1457	111478	1457	74849056
59	284	3875	-39	-24	27	-5	71	85	1458	111531	1458	74849060
47	284	3872	-44	-25	30	-5	71	85	1459	111631	1459	74849077
47	293	3876	-39	-25	26	-6	68	88	1460	111684	1460	74849078
32	297	3863	-38	-23	26	-6	68	88	1461	111784	1461	74849081
51	293	3896	-40	-22	29	-1	67	83	1462	111837	1462	74849081
40	280	3874	-42	-22	27	-1	67	83	1463	111937	1463	74849085
27	289	3877	-39	-24	27	-1	67	85	1464	111990	1464	74849102
31	293	3892	-40	-21	27	-1	67	85	1465	112090	1465	74849103
33	292	3891	-38	-25	27	-4	68	84	1466	112143	1466	74849106
40	287	3847	-38	-23	28	-4	68	84	1467	112243	1467	74849107
57	286	3858	-36	-24	28	-2	64	84	1468	112296	1468	74849109
38	299	3855	-38	-23	28	-2	64	84	1469	112396	1469	74849127
52	288	3872	-42	-24	26	-6	62	84	1470	112449	1470	74849128
41	298	3883	-39	-22	27	-6	62	84	1471	112549	1471	74849131
33	290	3871	-39	-24	29	-3	67	87	1472	112601	1472	74849131
51	281	3885	-41	-25	30	-3	67	87	1473	112702	1473	74849152
29	278	3892	-40	-26	25	-1	63	85	1474	112755	1474	74849152
36	284	3863	-41	-23	28	-1	63	85	1475	112855	1475	74849155
53	293	3873	-39	-23	28	-1	67	87	1476	112908	1476	74849156
38	289	3861	-41	-25	25	-1	67	87	1477	113008	1477	74849156
34	296	3881	-39	-26	30	-6	68	80	1478	113061	1478	74849177
46	285	3876	-39	-25	26	-6	68	80	1479	113161	1479	74849178
34	292	3879	-36	-26	27	-7	67	85	1480	113214	1480	74849180
38	288	3879	-41	-21	29	-7	67	85	1481	113314	1481	74849181
36	291	3873	-40	-21	26	-4	66	82	1482	113367	1482	74849181
47	301	3884	-40	-22	29	-4	66	82	1483	113467	1483	74849202
46	284	3873	-42	-23	30	-7	65	83	1484	113520	1484	74849203
50	290	3842	-39	-22	30	-7	65	83	1485	113620	1485	74849205
37	276	3874	-37	-24	28	-5	59	85	1486	113673	1486	74849206
51	281	3870	-38	-24	31	-5	59	85	1487	113773	1487	74849207
37	278	3883	-39	-23	28	-1	65	85	1488	113826	1488	74849228
37	294	3865	-41	-24	27	-1	65	85	1489	113926	1489	74849228
48	277	3862	-39	-27	29	-3	61	89	1490	113979	1490	74849230
37	279	3877	-38	-23	27	-3	61	89	1491	114079	1491	74849231
62	290	3867	-42	-25	24	-6	68	86	1492	114131	1492	74849232
56	288	3873	-40	-25	26	-6	68	86	1493	114231	1493	74849253
33	292	3871	-38	-26	30	-7	65	85	1494	114284	1494	74849254
17	290	3847	-40	-23	29	-7	65	85	1495	114384	1495	74849256
52	302	3860	-38	-24	26	-2	66	90	1496	114437	1496	74849257
41	292	3882	-39	-24	30	-2	66	90	1497	114537	1497	74849258
35	291	3847	-37	-21	29	-5	63	81	1498	114590	1498	74849279
38	281	3875	-41	-20	28	-5	63	81	1499	114690	1499	74849279
46	282	3866	-40	-21	29	-3	63	89	1500	114743	1500	74849281
35	295	3901	-38	-23	29	-3	63	89	1501	114843	1501	74849282
53	307	3874	-41	-24	28	-1	69	87	1502	114896	1502	74849282
45	283	3871	-41	-24	29	-1	69	87	1503	114996	1503	74849287
46	296	3878	-40	-23	29	-5	71	85	1504	115049	1504	74849288
31	285	3867	-41	-23	26	-5	71	85	1505	115149	1505	74849302
38	289	3859	-36	-23	29	7	61	81	1506	115202	1506	74849303
31	282	3853	-37	-22	28	7	61	81	1507	115302	1507	74849305
34	298	3870	-38	-22	28	-4	68	82	1508	115355	1508	74849314
37	282	3875	-39	-23	30	-4	68	82	1509	115455	1509	74849314
53	295	3869	-37	-25	30	-1	63	91	1510	115508	1510	74849327
40	285	3863	-40	-24	26	-1	63	91	1511	115608	1511	74849327
40	288	3867	-40	-25	28	-3	69	83	1512	115661	1512	74849330
48	306	3866	-38	-25	28	-3	69	83	1513	115761	1513	74849337
43	279	3862	-38	-21	25	2	72	86	1514	115814	1514	74849338
49	284	3854	-39	-24	28	2	72	86	1515	115914	1515	74849352
51	299	3871	-40	-22	28	1	65	87	1516	115967	1516	74849352
46	288	3885	-39	-26	26	1	65	87	1517	116067	1517	74849355
42	306	3846	-40	-25	26	-2	66	84	1518	116120	1518	74849362
50	289	3858	-41	-23	28	-2	66	84	1519	116220	1519	74849362
45	289	3866	-40	-21	27	-4	62	90	1520	116273	1520	74849377
43	275	3861	-41	-25	27	-4	62	90	1521	116373	1521	74849378
58	286	3881	-39	-25	28	3	65	85	1522	116426	1522	74849380
42	288	3848	-40	-22	27	3	65	85	1523	116526	1523	74849387
46	292	3880	-38	-24	25	-8	68	80	1524	116579	1524	74849388
53	308	3873	-39	-19	31	-8	68	80	1525	116679	1525	74849429
38	285	3857	-39	-24	30	-8	64	90	1526	116732	1526	74849429
43	283	3893	-38	-22	26	-8	64	90	1527	116832	1527	74849432
48	294	3864	-40	-26	29	-5	69	83	1528	116885	1528	74849433
43	284	3868	-44	-22	29	-5	69	83	1529	116985	1529	74849434
33	275	3878	-41	-25	25	-1	69	79	1530	117038	1530	74849436
34	288	3873	-42	-23	28	-1	69	79	1531	117138	1531	74849437
46	279	3873	-37	-22	29	-8	68	84	1532	117191	1532	74849440
44	307	3870	-40	-22	27	-8	68	84	1533	117291	1533	74849454
42	290	3884	-38	-25	27	-7	65	81	1534	117344	1534	74849455
49	301	3878	-36	-22	29	-7	65	81	1535	117444	1535	74849457
48	301	3874	-40	-20	28	-5	69	87	1536	117497	1536	74849458
34	295	3866	-41	-19	27	-5	69	87	1537	117597	1537	74849461
31	307	3861	-39	-24	28	-3	67	83	1538	117650	1538	74849463
64	275	3878	-40	-23	27	-3	67	83	1539	117750	1539	74849463
25	288	3877	-40	-24	25	5	61	83	1540	117803	1540	74849477
49	295	3856	-42	-24	29	5	61	83	1541	117903	1541	74849478
21	284	3869	-40	-25	28	-3	61	81	1542	117956	1542	74849481
36	283	3881	-39	-23	29	-3	61	81	1543	118056	1543	74849482
70	279	3891	-37	-21	28	-5	73	85	1544	118109	1544	74849485
46	298	3870	-41	-23	25	-5	73	85	1545	118209	1545	74849502
48	301	3889	-40	-21	24	-1	65	81	1546	118262	1546	74849503
49	283	3874	-39	-22	29	-1	65	81	1547	118362	1547	74849507
57	302	3877	-37	-23	31	0	68	78	1548	118414	1548	74849507
40	284	3873	-41	-25	26	0	68	78	1549	118514	1549	74849510
40	281	3863	-39	-24	27	2	66	78	1550	118567	1550	74849527
36	288	3870	-39	-22	28	2	66	78	1551	118667	1551	74849527
37	279	3884	-39	-24	26	-4	62	84	1552	118720	1552	74849531
27	296	3863	-39	-23	27	-4	62	84	1553	118820	1553	74849531
55	300	3867	-39	-24	25	-4	68	82	1554	118873	1554	74849535
56	279	3875	-41	-24	26	-4	68	82	1555	118973	1555	74849555
46	286	3866	-37	-25	28	0	64	88	1556	119026	1556	74849555
50	286	3871	-38	-23	30	0	64	88	1557	119126	1557	74849558
45	279	3862	-39	-24	28	-6	60	80	1558	119179	1558	74849559
52	281	3877	-39	-23	27	-6	60	80	1559	119279	1559	74849561
36	283	3866	-38	-23	30	-3	65	81	1560	119332	1560	74849578
37	289	3868	-41	-23	27	-3	65	81	1561	119432	1561	74849579
44	299	3863	-38	-25	26	-3	61	89	1562	119485	1562	74849582
45	276	3859	-40	-23	28	-3	61	89	1563	119585	1563	74849582
31	284	3860	-41	-25	26	-2	68	82	1564	119637	1564	74849603
45	297	3857	-41	-26	26	-2	68	82	1565	119737	1565	74849603
41	280	3861	-41	-22	29	-6	66	86	1566	119790	1566	74849604
32	291	3860	-42	-22	26	-6	66	86	1567	119890	1567	74849607
51	289	3866	-39	-23	26	-9	67	85	1568	119943	1568	74849607
50	295	3884	-39	-23	29	-9	67	85	1569	120043	1569	74849628
39	302	3865	-42	-25	29	-2	64	82	1570	120096	1570	74849629
34	271	3858	-40	-23	26	-2	64	82	1571	120196	1571	74849631
58	296	3879	-37	-22	30	-7	69	87	1572	120249	1572	74849632
43	274	3874	-41	-22	29	-7	69	87	1573	120349	1573	74849633
53	288	3872	-41	-23	27	-4	64	86	1574	120402	1574	74849653
37	297	3856	-40	-20	28	-4	64	86	1575	120502	1575	74849654
56	281	3873	-37	-20	31	-1	67	91	1576	120555	1576	74849656
36	285	3859	-40	-22	28	-1	67	91	1577	120655	1577	74849657
38	286	3877	-38	-24	29	-4	68	84	1578	120708	1578	74849657
50	279	3875	-37	-24	29	-4	68	84	1579	120808	1579	74849677
47	291	3859	-35	-24	26	-5	63	85	1580	120861	1580	74849677
27	287	3883	-37	-22	28	-5	63	85	1581	120961	1581	74849679
44	282	3873	-38	-23	30	-5	59	91	1582	121014	1582	74849681
45	291	3889	-38	-23	27	-5	59	91	1583	121114	1583	74849681
39	302	3857	-38	-23	26	-5	69	83	1584	121166	1584	74849702
43	291	3857	-42	-24	29	-5	69	83	1585	121266	1585	74849703
50	284	3868	-39	-24	28	-4	66	86	1586	121319	1586	74849704
49	280	3885	-42	-21	27	-4	66	86	1587	121419	1587	74849706
50	285	3877	-39	-25	27	-3	65	81	1588	121472	1588	74849706
46	285	3861	-41	-27	27	-3	65	81	1589	121572	1589	74849727
52	283	3872	-39	-26	25	1	65	83	1590	121625	1590	74849728
36	289	3883	-39	-24	28	1	65	83	1591	121725	1591	74849731
40	288	3870	-40	-23	29	-5	63	85	1592	121778	1592	74849732
33	278	3876	-37	-28	26	-5	63	85	1593	121878	1593	74849732
51	278	3877	-38	-22	27	2	68	80	1594	121931	1594	74849752
29	288	3843	-39	-23	28	2	68	80	1595	122031	1595	74849752
43	293	3875	-37	-23	26	-3	63	87	1596	122084	1596	74849756
46	285	3882	-39	-23	27	-3	63	87	1597	122184	1597	74849756
41	282	3866	-39	-22	30	-4	70	80	1598	122237	1598	74849758
42	299	3858	-40	-23	26	-4	70	80	1599	122337	1599	74849764
37	283	3870	-39	-25	27	-1	63	81	1600	122389	1600	74849764
51	292	3881	-41	-26	30	-1	63	81	1601	122489	1601	74849777
41	277	3900	-39	-25	26	-2	64	88	1602	122542	1602	74849777
35	298	3867	-40	-23	27	-2	64	88	1603	122642	1603	74849779
48	303	3869	-38	-24	29	-5	67	81	1604	122694	1604	74849812
49	293	3887	-39	-25	28	-5	67	81	1605	122794	1605	74849812
38	276	3855	-40	-22	26	-4	66	80	1606	122846	1606	74849816
33	275	3859	-39	-21	29	-4	66	80	1607	122947	1607	74849816
37	284	3858	-38	-22	26	-3	69	83	1608	123000	1608	74849818
36	294	3884	-38	-21	24	-3	69	83	1609	123100	1609	74849820
28	287	3860	-38	-24	26	-9	67	87	1610	123153	1610	74849820
35	292	3864	-42	-21	27	-9	67	87	1611	123253	1611	74849823
45	299	3858	-39	-21	24	-1	63	87	1612	123305	1612	74849824
35	276	3873	-39	-20	29	-1	63	87	1613	123405	1613	74849827
47	290	3876	-38	-24	28	-3	69	85	1614	123458	1614	74849842
38	279	3870	-39	-24	27	-3	69	85	1615	123558	1615	74849844
44	300	3872	-38	-23	28	-10	64	82	1616	123610	1616	74849847
40	274	3871	-41	-24	29	-10	64	82	1617	123710	1617	74849848
33	297	3884	-41	-26	26	0	70	84	1618	123762	1618	74849851
28	286	3890	-39	-23	26	0	70	84	1619	123863	1619	74849868
51	286	3859	-38	-24	29	2	64	86	1620	123916	1620	74849869
39	283	3889	-40	-22	29	2	64	86	1621	124016	1621	74849872
34	292	3869	-40	-21	29	-4	66	84	1622	124068	1622	74849872
24	297	3853	-45	-25	30	-4	66	84	1623	124168	1623	74849892
54	299	3878	-41	-27	27	-5	65	85	1624	124221	1624	74849892
54	307	3862	-39	-22	27	-5	65	85	1625	124321	1625	74849892
51	277	3871	-38	-22	30	-5	63	83	1626	124374	1626	74849896
36	293	3870	-38	-22	28	-5	63	83	1627	124474	1627	74849897
42	291	3866	-41	-25	27	-5	67	81	1628	124526	1628	74849917
36	276	3854	-37	-24	26	-5	67	81	1629	124626	1629	74849917
37	282	3874	-37	-21	26	0	64	82	1630	124678	1630	74849918
45	293	3859	-41	-23	25	0	64	82	1631	124779	1631	74849921
60	276	3882	-40	-22	29	-11	67	79	1632	124832	1632	74849921
49	291	3854	-42	-19	29	-11	67	79	1633	124932	1633	74849942
51	286	3871	-40	-24	27	1	67	89	1634	124985	1634	74849942
55	284	3862	-42	-22	27	1	67	89	1635	125085	1635	74849945
51	283	3862	-38	-20	29	-7	69	79	1636	125138	1636	74849946
49	292	3863	-38	-23	28	-7	69	79	1637	125238	1637	74849946
44	283	3876	-40	-23	26	-1	71	79	1638	125291	1638	74849967
37	300	3885	-40	-25	29	-1	71	79	1639	125391	1639	74849967
45	286	3863	-38	-23	27	1	63	87	1640	125444	1640	74849970
46	293	3877	-39	-27	27	1	63	87	1641	125544	1641	74849971
25	302	3864	-38	-24	31	-6	66	80	1642	125597	1642	74849971
49	278	3873	-43	-21	26	-6	66	80	1643	125697	1643	74849991
34	296	3870	-42	-20	27	-4	66	82	1644	125750	1644	74849991
37	283	3854	-41	-23	29	-4	66	82	1645	125850	1645	74849993
43	290	3865	-39	-21	28	-6	70	82	1646	125903	1646	74849995
47	283	3863	-39	-22	26	-6	70	82	1647	126003	1647	74849995
47	285	3880	-39	-25	27	-1	67	81	1648	126055	1648	74850016
28	289	3858	-39	-24	30	-1	67	81	1649	126155	1649	74850016
31	276	3869	-40	-22	27	6	68	88	1650	126208	1650	74850018
40	301	3849	-40	-23	30	6	68	88	1651	126308	1651	74850019
41	289	3876	-41	-28	27	-5	63	85	1652	126360	1652	74850020
42	289	3837	-41	-25	27	-5	63	85	1653	126460	1653	74850068
54	294	3893	-40	-25	30	-4	62	84	1654	126513	1654	74850068
40	286	3858	-40	-23	29	-4	62	84	1655	126613	1655	74850072
47	282	3866	-37	-24	26	0	68	86	1656	126666	1656	74850072
43	285	3857	-39	-25	28	0	68	86	1657	126766	1657	74850072
51	277	3860	-39	-25	30	-6	68	82	1658	126819	1658	74850076
25	282	3886	-39	-24	26	-6	68	82	1659	126919	1659	74850076
40	287	3868	-39	-25	29	-5	67	77	1660	126972	1660	74850091
36	284	3871	-42	-23	30	-5	67	77	1661	127072	1661	74850091
27	286	3866	-39	-24	28	5	65	79	1662	127125	1662	74850093
52	297	3859	-37	-22	28	5	65	79	1663	127225	1663	74850095
33	289	3869	-39	-24	29	0	66	82	1664	127277	1664	74850095
31	290	3870	-41	-23	27	0	66	82	1665	127377	1665	74850098
41	292	3863	-39	-23	27	-7	65	85	1666	127429	1666	74850099
38	284	3881	-42	-25	27	-7	65	85	1667	127530	1667	74850101
45	282	3882	-40	-23	27	-2	66	82	1668	127583	1668	74850117
50	308	3889	-39	-22	26	-2	66	82	1669	127683	1669	74850117
35	283	3866	-40	-21	27	-5	69	83	1670	127735	1670	74850120
38	290	3862	-40	-22	29	-5	69	83	1671	127835	1671	74850121
47	283	3882	-39	-22	27	-4	68	88	1672	127888	1672	74850123
52	286	3883	-39	-25	31	-4	68	88	1673	127988	1673	74850142
52	298	3854	-39	-24	27	-4	70	86	1674	128041	1674	74850142
55	288	3864	-42	-21	26	-4	70	86	1675	128141	1675	74850145
56	292	3856	-39	-24	26	-2	64	88	1676	128194	1676	74850146
36	285	3902	-39	-22	30	-2	64	88	1677	128294	1677	74850148
49	295	3868	-38	-24	27	-2	70	84	1678	128347	1678	74850169
50	294	3879	-41	-22	30	-2	70	84	1679	128447	1679	74850170
45	301	3884	-38	-21	29	-1	63	89	1680	128500	1680	74850173
48	281	3857	-39	-23	29	-1	63	89	1681	128600	1681	74850174
50	284	3847	-37	-24	28	-5	67	85	1682	128652	1682	74850175
41	290	3865	-39	-24	29	-5	67	85	1683	128752	1683	74850177
34	286	3875	-38	-24	26	-4	66	80	1684	128805	1684	74850178
55	292	3861	-40	-24	29	-4	66	80	1685	128905	1685	74850194
52	298	3870	-39	-26	31	-3	67	91	1686	128958	1686	74850194
41	282	3860	-40	-22	28	-3	67	91	1687	129058	1687	74850202
37	283	3871	-39	-23	27	0	70	84	1688	129111	1688	74850202
42	277	3861	-41	-23	28	0	70	84	1689	129211	1689	74850202
39	280	3855	-40	-25	26	2	64	86	1690	129264	1690	74850218
33	277	3875	-39	-24	26	2	64	86	1691	129364	1691	74850218
47	299	3867	-38	-25	30	-3	71	81	1692	129417	1692	74850227
51	307	3867	-39	-23	32	-3	71	81	1693	129517	1693	74850227
60	298	3863	-39	-26	26	-6	68	80	1694	129570	1694	74850229
35	301	3876	-41	-25	30	-6	68	80	1695	129670	1695	74850243
36	284	3885	-41	-21	29	-1	59	85	1696	129723	1696	74850243
47	288	3859	-39	-22	27	-1	59	85	1697	129823	1697	74850250
37	298	3887	-37	-26	28	-4	68	82	1698	129876	1698	74850251
48	273	3876	-41	-21	29	-4	68	82	1699	129976	1699	74850268
35	293	3863	-35	-24	26	-4	68	84	1700	130029	1700	74850269
46	281	3883	-39	-22	29	-4	68	84	1701	130129	1701	74850269
52	281	3865	-39	-20	28	-1	69	83	1702	130182	1702	74850274
32	278	3868	-43	-22	27	-1	69	83	1703	130282	1703	74850274
48	290	3874	-38	-22	26	-7	69	83	1704	130335	1704	74850278
33	289	3863	-38	-22	28	-7	69	83	1705	130435	1705	74850293
36	304	3873	-40	-23	26	-6	68	86	1706	130488	1706	74850293
40	278	3870	-42	-23	28	-6	68	86	1707	130588	1707	74850298
46	292	3861	-41	-24	28	-7	61	83	1708	130641	1708	74850298
25	287	3852	-38	-23	27	-7	61	83	1709	130741	1709	74850302
47	289	3874	-38	-23	29	-1	65	83	1710	130794	1710	74850317
44	291	3872	-40	-22	30	-1	65	83	1711	130894	1711	74850317
50	294	3889	-38	-26	28	-7	67	83	1712	130947	1712	74850324
45	285	3874	-39	-24	28	-7	67	83	1713	131047	1713	74850325
41	302	3878	-37	-23	28	2	62	80	1714	131100	1714	74850327
41	282	3847	-42	-24	27	2	62	80	1715	131200	1715	74850342
45	291	3874	-39	-23	26	-6	66	82	1716	131253	1716	74850342
46	280	3884	-39	-22	28	-6	66	82	1717	131353	1717	74850347
40	273	3868	-37	-22	28	0	68	78	1718	131406	1718	74850347
39	288	3887	-41	-25	30	0	68	78	1719	131506	1719	74850367
37	276	3874	-40	-24	28	-5	65	85	1720	131559	1720	74850367
38	291	3868	-39	-22	28	-5	65	85	1721	131659	1721	74850369
38	290	3879	-40	-24	25	-2	68	84	1722	131712	1722	74850372
54	278	3868	-41	-22	27	-2	68	84	1723	131812	1723	74850372
52	292	3867	-38	-21	31	-6	72	86	1724	131865	1724	74850392
62	291	3854	-39	-23	27	-6	72	86	1725	131965	1725	74850392
45	297	3863	-40	-25	27	-4	66	86	1726	132018	1726	74850394
35	278	3863	-40	-23	30	-4	66	86	1727	132118	1727	74850397
40	277	3865	-38	-24	25	-1	63	85	1728	132171	1728	74850397
50	290	3856	-39	-24	26	-1	63	85	1729	132271	1729	74850417
45	290	3861	-38	-22	30	2	66	86	1730	132324	1730	74850417
38	285	3842	-37	-24	27	2	66	86	1731	132424	1731	74850419
46	280	3848	-38	-24	25	-8	68	84	1732	132477	1732	74850422
47	271	3870	-37	-23	30	-8	68	84	1733	132577	1733	74850422
34	270	3871	-37	-23	27	-3	67	79	1734	132630	1734	74850442
37	274	3858	-38	-24	27	-3	67	79	1735	132730	1735	74850442
31	278	3865	-38	-24	29	5	69	87	1736	132783	1736	74850445
44	296	3871	-38	-22	33	5	69	87	1737	132883	1737	74850445
42	297	3880	-40	-24	29	-8	66	80	1738	132936	1738	74850446
51	289	3864	-42	-22	30	-8	66	80	1739	133036	1739	74850467
50	292	3881	-40	-22	31	-3	69	85	1740	133089	1740	74850467
61	297	3857	-41	-22	26	-3	69	85	1741	133189	1741	74850469
45	279	3873	-38	-22	26	-4	66	90	1742	133242	1742	74850470
30	292	3870	-39	-23	28	-4	66	90	1743	133342	1743	74850472
42	280	3860	-37	-22	27	-1	69	83	1744	133395	1744	74850492
37	296	3851	-40	-23	28	-1	69	83	1745	133495	1745	74850492
38	283	3869	-39	-25	28	-2	68	86	1746	133548	1746	74850495
29	279	3867	-42	-23	26	-2	68	86	1747	133648	1747	74850496
19	299	3869	-39	-21	28	-3	69	83	1748	133701	1748	74850496
37	285	3871	-40	-21	29	-3	69	83	1749	133801	1749	74850517
38	291	3884	-40	-24	28	-8	68	86	1750	133854	1750	74850517
37	287	3870	-42	-25	27	-8	68	86	1751	133954	1751	74850520
49	300	3866	-39	-25	29	-7	61	85	1752	134007	1752	74850521
44	283	3863	-40	-25	28	-7	61	85	1753	134107	1753	74850523
40	284	3852	-41	-21	27	-7	65	81	1754	134160	1754	74850542
36	285	3871	-41	-22	29	-7	65	81	1755	134260	1755	74850542
35	291	3865	-39	-23	28	1	69	83	1756	134313	1756	74850545
31	294	3870	-40	-24	27	1	69	83	1757	134413	1757	74850545
51	292	3873	-38	-25	28	-5	71	85	1758	134466	1758	74850548
43	281	3869	-38	-21	29	-5	71	85	1759	134566	1759	74850569
31	283	3872	-36	-22	28	-2	64	84	1760	134619	1760	74850569
37	290	3884	-37	-23	29	-2	64	84	1761	134719	1761	74850573
40	284	3879	-39	-25	28	0	66	88	1762	134772	1762	74850574
36	288	3874	-43	-24	27	0	66	88	1763	134872	1763	74850576
23	293	3868	-39	-23	30	-1	65	87	1764	134925	1764	74850593
38	286	3860	-39	-23	29	-1	65	87	1765	135025	1765	74850593
53	287	3869	-37	-25	26	-7	59	87	1766	135078	1766	74850597
41	284	3866	-40	-24	29	-7	59	87	1767	135178	1767	74850597
38	286	3891	-38	-24	31	-4	78	82	1768	135231	1768	74850599
38	283	3876	-41	-24	28	-4	78	82	1769	135331	1769	74850617
60	285	3874	-39	-23	28	-1	65	87	1770	135384	1770	74850617
59	291	3874	-41	-25	30	-1	65	87	1771	135484	1771	74850620
26	289	3867	-39	-24	28	2	60	84	1772	135537	1772	74850620
39	278	3876	-40	-23	26	2	60	84	1773	135637	1773	74850623
46	293	3883	-40	-22	31	1	67	89	1774	135690	1774	74850642
46	300	3874	-40	-22	29	1	67	89	1775	135790	1775	74850642
29	292	3864	-38	-25	28	-1	61	85	1776	135843	1776	74850645
39	292	3878	-41	-24	28	-1	61	85	1777	135943	1777	74850646
48	294	3864	-39	-25	28	0	72	80	1778	135996	1778	74850650
28	278	3862	-39	-24	28	0	72	80	1779	136096	1779	74850651
60	289	3880	-40	-23	29	-5	65	83	1780	136149	1780	74850652
37	294	3872	-38	-22	27	-5	65	83	1781	136249	1781	74850668
38	286	3867	-38	-22	28	-6	68	80	1782	136302	1782	74850668
37	284	3840	-40	-25	28	-6	68	80	1783	136402	1783	74850700
44	296	3871	-40	-27	28	-9	69	87	1784	136455	1784	74850701
68	285	3870	-40	-25	28	-9	69	87	1785	136555	1785	74850703
45	282	3872	-40	-24	28	-3	63	83	1786	136608	1786	74850719
59	279	3867	-44	-27	29	-3	63	83	1787	136708	1787	74850719
35	300	3879	-38	-24	28	-5	67	77	1788	136761	1788	74850723
34	289	3876	-41	-21	29	-5	67	77	1789	136861	1789	74850723
32	294	3868	-38	-22	28	-7	65	83	1790	136914	1790	74850725
41	279	3866	-39	-21	26	-7	65	83	1791	137014	1791	74850727
42	290	3852	-37	-25	28	-8	66	90	1792	137067	1792	74850727
41	283	3842	-41	-24	29	-8	66	90	1793	137167	1793	74850744
44	293	3846	-39	-24	26	-3	63	87	1794	137220	1794	74850744
48	295	3846	-38	-21	26	-3	63	87	1795	137320	1795	74850747
50	285	3851	-37	-22	29	-2	68	82	1796	137373	1796	74850748
42	291	3866	-38	-23	28	-2	68	82	1797	137473	1797	74850748
52	286	3872	-38	-25	26	-2	66	84	1798	137526	1798	74850752
44	277	3871	-40	-25	28	-2	66	84	1799	137626	1799	74850752
46	295	3860	-41	-24	27	-1	69	83	1800	137679	1800	74850754
43	294	3865	-40	-25	27	-1	69	83	1801	137779	1801	74850767
36	284	3882	-39	-23	30	-3	67	83	1802	137832	1802	74850767
43	283	3869	-43	-25	26	-3	67	83	1803	137932	1803	74850774
27	294	3861	-41	-26	27	-5	69	81	1804	137985	1804	74850774
30	297	3861	-39	-26	30	-5	69	81	1805	138085	1805	74850778
53	287	3852	-38	-25	30	1	63	89	1806	138138	1806	74850792
43	290	3866	-40	-22	28	1	63	89	1807	138238	1807	74850792
34	271	3870	-38	-24	28	-8	70	82	1808	138291	1808	74850799
36	277	3849	-41	-23	30	-8	70	82	1809	138391	1809	74850800
35	287	3878	-38	-24	27	0	66	86	1810	138444	1810	74850802
50	294	3891	-39	-22	28	0	66	86	1811	138544	1811	74850817
41	274	3873	-38	-24	30	-7	71	85	1812	138597	1812	74850817
33	287	3865	-37	-24	28	-7	71	85	1813	138697	1813	74850824
38	283	3890	-37	-26	26	-9	65	81	1814	138750	1814	74850825
47	275	3867	-37	-24	30	-9	65	81	1815	138850	1815	74850844
39	288	3875	-38	-23	27	3	67	85	1816	138903	1816	74850844
42	274	3890	-40	-25	26	3	67	85	1817	139003	1817	74850847
42	286	3872	-38	-22	29	-7	67	83	1818	139056	1818	74850848
45	283	3853	-40	-24	29	-7	67	83	1819	139156	1819	74850848
23	281	3848	-40	-25	27	-6	74	82	1820	139209	1820	74850865
52	298	3852	-39	-23	32	-6	74	82	1821	139309	1821	74850866
51	286	3865	-39	-23	29	6	70	90	1822	139362	1822	74850868
30	300	3855	-41	-25	24	6	70	90	1823	139462	1823	74850873
41	279	3881	-41	-24	29	-1	65	79	1824	139515	1824	74850873
50	298	3860	-41	-22	27	-1	65	79	1825	139615	1825	74850909
49	289	3866	-39	-23	26	-2	66	88	1826	139668	1826	74850909
44	292	3848	-39	-25	28	-2	66	88	1827	139768	1827	74850912
41	290	3846	-38	-24	29	-1	65	89	1828	139821	1828	74850913
35	275	3845	-41	-23	30	-1	65	89	1829	139921	1829	74850913
41	286	3874	-38	-24	28	-4	72	82	1830	139974	1830	74850917
49	287	3868	-40	-23	29	-4	72	82	1831	140074	1831	74850917
41	287	3873	-39	-22	29	-1	63	85	1832	140127	1832	74850919
33	278	3866	-42	-23	28	-1	63	85	1833	140227	1833	74850920
29	297	3876	-40	-22	32	-8	68	82	1834	140280	1834	74850921
45	293	3876	-39	-24	28	-8	68	82	1835	140380	1835	74850934
46	282	3887	-39	-21	27	-2	66	90	1836	140433	1836	74850934
37	285	3847	-40	-22	27	-2	66	90	1837	140533	1837	74850937
35	290	3879	-39	-22	26	-3	69	77	1838	140586	1838	74850970
50	284	3867	-40	-22	24	-3	69	77	1839	140686	1839	74850972
49	294	3865	-38	-24	29	5	63	89	1840	140739	1840	74850974
51	279	3877	-39	-24	28	5	63	89	1841	140839	1841	74850975
52	288	3861	-39	-22	28	-5	69	83	1842	140892	1842	74850978
39	284	3870	-38	-23	29	-5	69	83	1843	140992	1843	74850979
36	294	3854	-40	-23	28	-4	68	86	1844	141045	1844	74850980
47	287	3877	-41	-23	29	-4	68	86	1845	141145	1845	74850982
54	284	3865	-39	-26	27	-1	65	83	1846	141198	1846	74850982
53	287	3860	-37	-23	30	-1	65	83	1847	141298	1847	74851002
48	283	3868	-39	-23	27	-4	66	84	1848	141351	1848	74851002
41	260	3851	-40	-24	28	-4	66	84	1849	141451	1849	74851004
35	276	3875	-39	-26	31	-2	64	84	1850	141504	1850	74851006
33	285	3873	-38	-25	27	-2	64	84	1851	141604	1851	74851007
42	279	3876	-37	-23	27	-9	65	83	1852	141657	1852	74851026
50	294	3856	-39	-23	28	-9	65	83	1853	141757	1853	74851027
53	278	3865	-38	-25	26	-11	63	85	1854	141810	1854	74851029
51	278	3874	-39	-22	27	-11	63	85	1855	141910	1855	74851030
57	282	3852	-39	-24	27	-4	62	88	1856	141963	1856	74851031
37	274	3877	-40	-26	25	-4	62	88	1857	142063	1857	74851050
30	293	3885	-37	-24	25	-3	69	87	1858	142116	1858	74851050
45	287	3866	-39	-24	29	-3	69	87	1859	142216	1859	74851053
42	291	3854	-37	-24	30	-3	67	83	1860	142269	1860	74851054
36	282	3859	-38	-25	29	-3	67	83	1861	142369	1861	74851055
31	289	3911	-40	-24	30	-4	62	86	1862	142422	1862	74851074
26	293	3865	-40	-22	29	-4	62	86	1863	142522	1863	74851074
55	299	3874	-39	-24	25	1	65	79	1864	142575	1864	74851076
38	294	3892	-40	-24	27	1	65	79	1865	142675	1865	74851079
46	282	3875	-39	-23	29	-4	66	82	1866	142728	1866	74851079
39	287	3877	-40	-22	27	-4	66	82	1867	142828	1867	74851099
54	280	3881	-39	-24	30	-8	70	84	1868	142881	1868	74851099
40	285	3878	-38	-23	29	-8	70	84	1869	142981	1869	74851103
44	282	3870	-36	-25	26	-7	73	83	1870	143034	1870	74851103
54	293	3871	-41	-24	30	-7	73	83	1871	143134	1871	74851103
35	283	3870	-38	-26	30	-3	63	81	1872	143186	1872	74851124
35	294	3889	-39	-23	26	-3	63	81	1873	143287	1873	74851125
29	286	3864	-43	-24	28	-1	59	89	1874	143340	1874	74851128
44	286	3886	-40	-24	28	-1	59	89	1875	143440	1875	74851128
48	286	3869	-37	-24	27	-1	71	77	1876	143493	1876	74851130
61	300	3882	-40	-22	27	-1	71	77	1877	143593	1877	74851149
43	292	3865	-38	-22	32	-7	61	91	1878	143646	1878	74851149
49	294	3868	-41	-21	31	-7	61	91	1879	143746	1879	74851153
49	298	3858	-42	-23	26	-5	69	81	1880	143799	1880	74851153
45	268	3841	-42	-23	29	-5	69	81	1881	143899	1881	74851155
50	291	3863	-40	-25	30	-6	70	80	1882	143952	1882	74851174
35	282	3865	-39	-22	26	-6	70	80	1883	144052	1883	74851174
57	290	3876	-39	-23	29	0	64	90	1884	144105	1884	74851178
46	288	3857	-43	-22	26	0	64	90	1885	144205	1885	74851178
55	287	3867	-41	-24	27	-3	67	79	1886	144258	1886	74851180
35	287	3867	-39	-23	28	-3	67	79	1887	144358	1887	74851200
57	286	3869	-38	-24	27	-6	62	88	1888	144411	1888	74851200
51	286	3858	-39	-21	25	-6	62	88	1889	144511	1889	74851204
57	270	3862	-38	-26	29	-9	69	85	1890	144564	1890	74851204
46	292	3888	-39	-25	29	-9	69	85	1891	144664	1891	74851207
53	285	3856	-40	-21	27	-8	72	84	1892	144717	1892	74851224
39	290	3857	-40	-24	28	-8	72	84	1893	144817	1893	74851224
40	290	3853	-37	-24	29	2	66	84	1894	144870	1894	74851228
31	282	3868	-40	-23	27	2	66	84	1895	144970	1895	74851228
44	292	3862	-39	-24	27	-5	71	85	1896	145023	1896	74851230
40	292	3866	-39	-23	29	-5	71	85	1897	145123	1897	74851249
43	290	3883	-37	-21	28	3	67	87	1898	145176	1898	74851267
25	294	3865	-38	-25	27	3	67	87	1899	145276	1899	74851268
34	288	3861	-39	-24	29	-3	67	89	1900	145329	1900	74851269
42	280	3862	-42	-22	29	-3	67	89	1901	145429	1901	74851269
30	283	3842	-38	-22	26	-9	67	79	1902	145482	1902	74851269
41	280	3860	-38	-18	29	-9	67	79	1903	145582	1903	74851274
55	295	3862	-38	-22	28	0	64	82	1904	145635	1904	74851275
35	291	3861	-38	-23	28	0	64	82	1905	145735	1905	74851276
42	297	3872	-37	-25	28	2	66	82	1906	145788	1906	74851285
45	280	3887	-42	-25	29	2	66	82	1907	145888	1907	74851285
39	299	3873	-42	-25	24	-2	66	86	1908	145941	1908	74851288
48	287	3873	-41	-24	26	-2	66	86	1909	146041	1909	74851299
35	294	3893	-41	-23	28	-4	68	86	1910	146094	1910	74851299
39	297	3872	-43	-22	26	-4	68	86	1911	146194	1911	74851309
53	280	3866	-40	-24	29	-5	67	83	1912	146247	1912	74851310
40	271	3875	-41	-22	30	-5	67	83	1913	146347	1913	74851350
45	274	3857	-39	-24	25	-2	60	82	1914	146400	1914	74851351
37	281	3883	-39	-22	24	-2	60	82	1915	146500	1915	74851352
42	295	3874	-37	-24	27	-4	68	82	1916	146553	1916	74851355
39	277	3882	-39	-25	28	-4	68	82	1917	146653	1917	74851355
44	287	3854	-40	-25	26	-2	68	82	1918	146706	1918	74851358
39	292	3864	-38	-25	30	-2	68	82	1919	146806	1919	74851359
38	291	3856	-38	-24	28	-3	67	87	1920	146859	1920	74851359
34	293	3861	-42	-22	28	-3	67	87	1921	146959	1921	74851375
35	294	3887	-37	-23	29	-6	68	80	1922	147012	1922	74851376
35	297	3860	-40	-22	29	-6	68	80	1923	147112	1923	74851377
36	281	3889	-40	-24	27	2	60	86	1924	147165	1924	74851379
41	288	3871	-38	-24	29	2	60	86	1925	147265	1925	74851380
39	286	3874	-35	-22	30	1	67	81	1926	147318	1926	74851383
44	292	3871	-41	-22	27	1	67	81	1927	147418	1927	74851383
49	270	3890	-40	-23	27	-8	60	82	1928	147471	1928	74851400
45	301	3876	-41	-22	27	-8	60	82	1929	147571	1929	74851400
49	272	3862	-39	-24	26	1	61	85	1930	147624	1930	74851402
35	289	3868	-39	-24	26	1	61	85	1931	147724	1931	74851408
39	289	3868	-38	-24	28	-11	69	79	1932	147777	1932	74851408
42	301	3860	-39	-20	25	-11	69	79	1933	147877	1933	74851424
37	281	3861	-38	-23	27	1	59	83	1934	147930	1934	74851424
41	286	3881	-38	-20	31	1	59	83	1935	148030	1935	74851426
48	286	3885	-38	-22	28	-6	60	82	1936	148083	1936	74851433
56	281	3870	-38	-25	26	-6	60	82	1937	148183	1937	74851433
61	284	3854	-37	-25	28	-2	72	82	1938	148236	1938	74851449
32	296	3856	-40	-24	27	-2	72	82	1939	148336	1939	74851449
52	285	3863	-35	-23	28	-8	70	88	1940	148389	1940	74851451
45	286	3862	-41	-23	29	-8	70	88	1941	148489	1941	74851456
53	286	3878	-39	-23	29	-3	67	85	1942	148542	1942	74851456
29	293	3858	-40	-22	26	-3	67	85	1943	148642	1943	74851474
51	281	3865	-40	-25	30	-2	58	88	1944	148695	1944	74851474
43	294	3870	-41	-21	28	-2	58	88	1945	148795	1945	74851476
50	299	3884	-41	-25	24	0	62	84	1946	148848	1946	74851481
36	289	3859	-41	-23	30	0	62	84	1947	148948	1947	74851482
42	283	3844	-36	-24	30	-2	68	78	1948	149001	1948	74851501
40	292	3872	-40	-21	26	-2	68	78	1949	149101	1949	74851502
36	284	3865	-40	-21	26	-3	69	93	1950	149154	1950	74851504
38	272	3872	-39	-24	30	-3	69	93	1951	149254	1951	74851505
29	292	3879	-39	-26	26	-9	69	83	1952	149307	1952	74851506
40	299	3859	-44	-23	27	-9	69	83	1953	149407	1953	74851525
48	298	3855	-38	-23	28	1	67	83	1954	149460	1954	74851526
54	310	3848	-39	-24	26	1	67	83	1955	149560	1955	74851529
40	291	3899	-40	-25	26	-2	72	84	1956	149613	1956	74851529
46	306	3854	-43	-24	30	-2	72	84	1957	149713	1957	74851531
46	280	3884	-39	-23	28	-6	64	86	1958	149766	1958	74851549
39	281	3872	-43	-23	28	-6	64	86	1959	149866	1959	74851549
34	276	3883	-41	-24	30	3	65	83	1960	149919	1960	74851552
33	288	3868	-39	-23	29	3	65	83	1961	150019	1961	74851553
48	286	3880	-39	-24	27	-9	67	79	1962	150072	1962	74851555
49	307	3858	-39	-23	31	-9	67	79	1963	150172	1963	74851574
56	300	3867	-36	-25	28	-5	69	89	1964	150225	1964	74851574
44	264	3876	-38	-21	25	-5	69	89	1965	150325	1965	74851577
46	267	3884	-36	-23	28	-4	66	84	1966	150378	1966	74851578
30	284	3863	-41	-24	29	-4	66	84	1967	150478	1967	74851580
47	293	3862	-38	-26	26	-8	70	80	1968	150531	1968	74851599
47	285	3863	-40	-23	30	-8	70	80	1969	150631	1969	74851599
53	290	3868	-39	-24	29	-5	63	85	1970	150684	1970	74851603
38	282	3883	-39	-23	27	-5	63	85	1971	150784	1971	74851603
50	302	3867	-37	-25	29	-3	67	85	1972	150837	1972	74851605
51	294	3889	-38	-23	29	-3	67	85	1973	150937	1973	74851624
37	270	3864	-37	-24	28	-1	67	81	1974	150990	1974	74851624
55	284	3847	-41	-22	28	-1	67	81	1975	151090	1975	74851627
37	283	3864	-38	-20	29	-1	67	83	1976	151143	1976	74851628
40	284	3878	-39	-23	26	-1	67	83	1977	151243	1977	74851630
46	305	3849	-37	-24	26	-9	65	87	1978	151296	1978	74851649
35	281	3870	-39	-25	30	-9	65	87	1979	151396	1979	74851649
45	302	3874	-39	-22	30	-1	71	89	1980	151449	1980	74851653
37	295	3870	-41	-24	24	-1	71	89	1981	151549	1981	74851653
40	279	3889	-39	-25	29	-6	64	80	1982	151602	1982	74851655
29	292	3875	-42	-23	28	-6	64	80	1983	151702	1983	74851675
45	283	3871	-41	-23	26	2	66	82	1984	151755	1984	74851675
34	282	3873	-40	-22	29	2	66	82	1985	151855	1985	74851679
42	297	3857	-36	-23	29	-5	63	85	1986	151908	1986	74851679
53	291	3872	-38	-22	26	-5	63	85	1987	152008	1987	74851684
59	283	3877	-39	-24	29	-4	68	86	1988	152061	1988	74851684
50	291	3864	-40	-22	29	-4	68	86	1989	152161	1989	74851699
40	289	3860	-41	-24	28	3	65	83	1990	152214	1990	74851700
43	287	3885	-42	-24	28	3	65	83	1991	152314	1991	74851700
42	293	3871	-36	-22	28	0	64	84	1992	152367	1992	74851710
49	279	3845	-40	-23	25	0	64	84	1993	152467	1993	74851710
45	261	3858	-39	-25	27	-6	68	84	1994	152520	1994	74851724
26	281	3863	-39	-22	28	-6	68	84	1995	152620	1995	74851725
38	296	3869	-39	-25	29	-5	71	85	1996	152673	1996	74851725
39	292	3870	-40	-24	25	-5	71	85	1997	152773	1997	74851735
38	283	3862	-37	-24	27	-4	64	88	1998	152826	1998	74851735
51	294	3876	-39	-22	26	-4	64	88	1999	152926	1999	74851749
54	291	3880	-37	-23	27	-7	69	87	2000	152979	2000	74851750
50	279	3855	-40	-20	28	-7	69	87	2001	153079	2001	74851751
44	296	3874	-38	-23	28	-1	71	85	2002	153132	2002	74851760
43	299	3864	-39	-24	27	-1	71	85	2003	153232	2003	74851760
45	288	3856	-37	-23	28	-6	66	82	2004	153285	2004	74851763
60	284	3870	-38	-23	28	-6	66	82	2005	153385	2005	74851774
51	294	3853	-38	-24	26	-1	69	87	2006	153438	2006	74851776
42	288	3863	-41	-22	31	-1	69	87	2007	153538	2007	74851784
54	302	3882	-39	-23	29	-1	65	85	2008	153591	2008	74851785
41	300	3885	-40	-22	28	-1	65	85	2009	153691	2009	74851799
57	278	3881	-37	-24	29	-2	60	86	2010	153744	2010	74851800
54	282	3872	-41	-22	26	-2	60	86	2011	153844	2011	74851801
45	293	3869	-39	-25	28	-1	71	77	2012	153897	2012	74851809
35	288	3887	-42	-25	29	-1	71	77	2013	153997	2013	74851809
39	293	3881	-40	-25	31	2	64	84	2014	154050	2014	74851824
66	280	3859	-39	-25	27	2	64	84	2015	154150	2015	74851824
58	280	3892	-38	-25	28	-7	67	87	2016	154203	2016	74851824
32	288	3868	-37	-25	29	-7	67	87	2017	154303	2017	74851833
34	291	3881	-38	-25	27	-5	71	83	2018	154356	2018	74851833
43	286	3870	-39	-24	28	-5	71	83	2019	154456	2019	74851850
48	281	3862	-39	-25	28	1	65	83	2020	154509	2020	74851851
33	281	3856	-39	-22	26	1	65	83	2021	154609	2021	74851852
44	291	3874	-39	-24	25	3	67	83	2022	154662	2022	74851857
31	292	3887	-41	-24	30	3	67	83	2023	154762	2023	74851858
37	293	3868	-38	-24	28	2	64	84	2024	154815	2024	74851875
53	286	3878	-40	-24	26	2	64	84	2025	154915	2025	74851875
56	287	3876	-38	-24	27	-6	70	84	2026	154968	2026	74851877
31	296	3859	-39	-23	29	-6	70	84	2027	155068	2027	74851880
47	292	3860	-36	-23	25	-1	65	81	2028	155121	2028	74851880
34	269	3863	-39	-24	27	-1	65	81	2029	155221	2029	74851899
50	296	3860	-37	-24	28	-2	62	92	2030	155274	2030	74851899
39	288	3855	-37	-23	29	-2	62	92	2031	155374	2031	74851901
48	291	3869	-38	-23	27	-6	66	84	2032	155427	2032	74851906
40	284	3867	-39	-26	27	-6	66	84	2033	155527	2033	74851906
46	297	3866	-40	-24	26	-2	68	86	2034	155580	2034	74851924
44	290	3879	-42	-23	27	-2	68	86	2035	155680	2035	74851924
40	295	3861	-38	-22	31	-1	65	85	2036	155733	2036	74851926
50	293	3858	-41	-26	29	-1	65	85	2037	155833	2037	74851931
50	287	3878	-39	-26	29	-1	63	83	2038	155886	2038	74851933
48	293	3863	-38	-24	29	-1	63	83	2039	155986	2039	74851949
40	299	3852	-37	-24	28	-3	67	87	2040	156039	2040	74851949
58	283	3882	-39	-22	25	-3	67	87	2041	156139	2041	74851951
59	288	3848	-39	-23	28	-1	65	85	2042	156192	2042	74851952
45	272	3867	-43	-25	28	-1	65	85	2043	156292	2043	74851953
34	286	3858	-39	-26	27	0	64	82	2044	156345	2044	74851982
50	285	3871	-39	-24	29	0	64	82	2045	156445	2045	74851983
36	305	3878	-39	-24	29	-6	68	80	2046	156498	2046	74852000
39	264	3879	-40	-22	28	-6	68	80	2047	156598	2047	74852000
32	277	3860	-38	-24	29	-2	68	76	2048	156651	2048	74852003
25	272	3876	-41	-24	28	-2	68	76	2049	156751	2049	74852004
48	281	3848	-39	-25	29	-5	65	87	2050	156804	2050	74852004
42	273	3857	-39	-20	29	-5	65	87	2051	156904	2051	74852008
32	283	3866	-38	-23	28	1	63	83	2052	156957	2052	74852008
54	279	3832	-40	-24	25	1	63	83	2053	157057	2053	74852010
31	290	3873	-36	-25	26	-5	67	81	2054	157110	2054	74852025
42	287	3872	-38	-24	28	-5	67	81	2055	157210	2055	74852025
44	295	3852	-39	-24	25	-1	71	81	2056	157263	2056	74852028
53	283	3864	-40	-22	30	-1	71	81	2057	157363	2057	74852029
47	295	3841	-42	-22	29	2	68	84	2058	157416	2058	74852031
38	287	3849	-41	-22	29	2	68	84	2059	157516	2059	74852049
43	290	3884	-40	-24	28	2	64	86	2060	157569	2060	74852049
30	288	3862	-38	-22	29	2	64	86	2061	157669	2061	74852052
39	286	3860	-39	-24	27	-7	69	83	2062	157722	2062	74852052
31	290	3848	-38	-22	26	-7	69	83	2063	157822	2063	74852055
48	288	3869	-38	-22	26	-4	66	86	2064	157875	2064	74852074
42	293	3865	-37	-24	27	-4	66	86	2065	157975	2065	74852074
55	282	3883	-40	-23	28	-2	60	88	2066	158028	2066	74852077
40	277	3863	-40	-24	29	-2	60	88	2067	158128	2067	74852078
51	289	3856	-37	-22	27	-3	69	85	2068	158181	2068	74852099
47	297	3886	-39	-24	26	-3	69	85	2069	158281	2069	74852099
34	300	3880	-38	-23	29	1	63	95	2070	158334	2070	74852099
28	283	3845	-39	-23	27	1	63	95	2071	158434	2071	74852103
40	298	3874	-37	-25	25	-6	70	88	2072	158487	2072	74852104
48	278	3880	-39	-24	26	-6	70	88	2073	158587	2073	74852124
41	287	3861	-38	-24	29	-5	67	81	2074	158640	2074	74852124
44	285	3877	-40	-25	27	-5	67	81	2075	158740	2075	74852126
37	281	3872	-37	-26	29	-5	71	87	2076	158793	2076	74852128
54	287	3874	-41	-23	29	-5	71	87	2077	158893	2077	74852128
27	287	3866	-37	-24	28	-4	68	86	2078	158946	2078	74852149
42	295	3859	-39	-23	27	-4	68	86	2079	159046	2079	74852149
38	285	3878	-39	-25	28	-4	68	84	2080	159099	2080	74852151
41	277	3883	-39	-23	26	-4	68	84	2081	159199	2081	74852152
52	275	3865	-40	-22	25	-4	70	84	2082	159252	2082	74852153
55	304	3866	-41	-23	29	-4	70	84	2083	159352	2083	74852160
54	281	3859	-40	-24	25	-6	68	86	2084	159405	2084	74852160
45	285	3886	-38	-21	24	-6	68	86	2085	159505	2085	74852175
53	296	3891	-37	-22	29	-2	66	86	2086	159558	2086	74852177
40	277	3879	-39	-22	28	-2	66	86	2087	159658	2087	74852177
39	288	3871	-40	-22	26	-6	68	84	2088	159711	2088	74852185
40	295	3878	-39	-25	28	-6	68	84	2089	159811	2089	74852185
36	283	3899	-37	-23	28	-6	66	84	2090	159864	2090	74852187
28	280	3867	-39	-23	30	-6	66	84	2091	159964	2091	74852199
43	281	3891	-40	-24	28	-3	67	79	2092	160017	2092	74852199
40	281	3855	-41	-24	27	-3	67	79	2093	160117	2093	74852209
35	286	3853	-40	-23	27	-4	66	78	2094	160170	2094	74852209
73	294	3860	-40	-26	32	-4	66	78	2095	160270	2095	74852211
42	283	3864	-36	-24	29	0	68	86	2096	160323	2096	74852224
63	279	3895	-38	-23	27	0	68	86	2097	160423	2097	74852224
56	295	3873	-38	-25	27	-3	61	83	2098	160476	2098	74852234
31	294	3866	-39	-23	27	-3	61	83	2099	160576	2099	74852234
41	289	3842	-38	-25	26	-2	62	82	2100	160629	2100	74852248
50	283	3869	-36	-19	27	-2	62	82	2101	160729	2101	74852249
53	290	3853	-36	-24	30	-4	64	82	2102	160782	2102	74852251
47	287	3865	-41	-25	26	-4	64	82	2103	160882	2103	74852259
53	284	3848	-40	-25	29	-1	69	81	2104	160935	2104	74852259
43	288	3885	-39	-26	28	-1	69	81	2105	161035	2105	74852274
42	261	3863	-38	-25	28	-2	62	90	2106	161088	2106	74852274
60	292	3862	-41	-25	27	-2	62	90	2107	161188	2107	74852276
43	299	3884	-39	-23	27	-5	65	83	2108	161241	2108	74852283
42	288	3865	-40	-21	28	-5	65	83	2109	161341	2109	74852283
37	286	3862	-38	-22	28	-10	68	86	2110	161394	2110	74852300
48	287	3873	-39	-23	32	-10	68	86	2111	161494	2111	74852300
39	293	3877	-40	-23	29	-3	65	91	2112	161547	2112	74852303
52	289	3868	-40	-23	26	-3	65	91	2113	161647	2113	74852308
55	277	3867	-39	-23	30	1	67	81	2114	161700	2114	74852308
44	290	3854	-40	-24	28	1	67	81	2115	161800	2115	74852325
56	304	3856	-37	-27	26	3	65	91	2116	161853	2116	74852326
45	291	3849	-39	-25	27	3	65	91	2117	161953	2117	74852328
46	291	3856	-41	-24	31	-1	67	85	2118	162006	2118	74852333
56	272	3857	-41	-24	27	-1	67	85	2119	162106	2119	74852333
56	288	3866	-40	-25	28	0	66	78	2120	162159	2120	74852350
44	291	3845	-41	-23	28	0	66	78	2121	162259	2121	74852351
58	288	3852	-38	-24	28	-4	64	86	2122	162312	2122	74852353
32	306	3864	-39	-24	28	-4	64	86	2123	162412	2123	74852354
38	293	3843	-41	-23	31	-4	70	86	2124	162465	2124	74852354
46	292	3882	-41	-23	29	-4	70	86	2125	162565	2125	74852375
55	284	3869	-38	-23	27	-4	68	88	2126	162618	2126	74852375
49	275	3863	-39	-22	29	-4	68	88	2127	162718	2127	74852378
50	276	3872	-41	-21	29	-2	66	84	2128	162771	2128	74852380
46	279	3875	-41	-23	27	-2	66	84	2129	162871	2129	74852381
42	279	3833	-39	-25	29	-4	70	80	2130	162924	2130	74852400
39	281	3859	-39	-23	28	-4	70	80	2131	163024	2131	74852400
42	278	3856	-38	-21	24	-5	65	89	2132	163077	2132	74852404
56	289	3884	-40	-24	30	-5	65	89	2133	163177	2133	74852404
31	290	3893	-38	-21	29	-4	66	84	2134	163230	2134	74852406
50	284	3861	-41	-24	27	-4	66	84	2135	163330	2135	74852424
44	277	3872	-39	-24	29	-3	71	85	2136	163383	2136	74852424
