Accl X	Accl Y	Accl Z	Gyro X	Gyro Y	Gyro Z	Mag X	Mag Y	Mag Z	RPkt#	Rtime	LPkt#	Ltime
176	265	3897	-44	-28	22	-23	25	109	0	0	0	73277222
177	246	3924	-44	-24	28	-23	25	109	1	98	1	73277224
170	245	3932	-43	-22	27	-29	29	113	2	149	2	73277231
177	264	3905	-47	-23	24	-29	29	113	3	247	3	73277235
165	254	3934	-42	-26	26	-27	29	111	4	298	4	73277247
169	252	3919	-46	-27	28	-27	29	111	5	396	5	73277248
164	252	3933	-43	-25	26	-26	26	118	6	447	6	73277249
182	252	3936	-45	-25	26	-26	26	118	7	545	7	73277256
161	256	3931	-42	-25	29	-32	24	114	8	596	8	73277268
160	259	3937	-43	-29	25	-32	24	114	9	694	9	73277275
175	254	3910	-41	-24	25	-22	24	118	10	745	10	73277294
163	269	3911	-42	-24	28	-22	24	118	11	843	11	73277295
166	267	3927	-43	-25	27	-24	28	108	12	894	12	73277296
151	271	3911	-43	-26	26	-24	28	108	13	992	13	73277297
157	268	3922	-44	-24	27	-27	23	109	14	1043	14	73277299
179	252	3940	-45	-25	25	-27	23	109	15	1141	15	73277300
157	249	3908	-46	-26	24	-23	23	109	16	1192	16	73277302
160	255	3922	-43	-24	28	-23	23	109	17	1290	17	73277303
153	252	3913	-41	-25	26	-27	23	107	18	1341	18	73277304
151	267	3930	-44	-27	24	-27	23	107	19	1439	19	73277324
182	262	3912	-43	-24	24	-17	19	115	20	1490	20	73277324
150	260	3918	-45	-26	27	-17	19	115	21	1588	21	73277326
166	242	3918	-45	-25	24	-27	27	111	22	1639	22	73277328
174	267	3931	-45	-22	25	-27	27	111	23	1737	23	73277328
154	262	3899	-44	-25	25	-26	30	114	24	1788	24	73277348
164	251	3910	-48	-23	25	-26	30	114	25	1886	25	73277348
154	259	3927	-45	-25	27	-23	21	115	26	1937	26	73277351
180	254	3927	-47	-25	29	-23	21	115	27	2035	27	73277353
170	256	3918	-43	-27	25	-29	29	111	28	2086	28	73277353
172	258	3919	-43	-26	25	-29	29	111	29	2184	29	73277373
162	256	3915	-43	-26	28	-25	21	111	30	2235	30	73277373
174	269	3921	-43	-23	26	-25	21	111	31	2333	31	73277377
157	257	3926	-43	-26	25	-27	25	113	32	2384	32	73277377
165	252	3917	-47	-24	29	-27	25	113	33	2482	33	73277380
163	262	3913	-42	-25	24	-26	20	110	34	2533	34	73277398
164	280	3928	-42	-23	26	-26	20	110	35	2631	35	73277399
160	258	3913	-44	-26	27	-30	20	112	36	2682	36	73277402
177	247	3931	-44	-24	27	-30	20	112	37	2780	37	73277402
171	269	3899	-44	-27	26	-31	27	109	38	2831	38	73277405
183	246	3906	-43	-26	27	-31	27	109	39	2929	39	73277423
165	264	3927	-43	-27	26	-23	23	113	40	2980	40	73277424
168	269	3900	-44	-24	25	-23	23	113	41	3078	41	73277427
162	259	3928	-41	-26	28	-27	29	113	42	3129	42	73277427
155	258	3923	-42	-22	27	-27	29	113	43	3227	43	73277430
158	256	3926	-42	-24	25	-24	24	108	44	3278	44	73277473
174	265	3929	-43	-25	27	-24	24	108	45	3376	45	73277474
179	253	3909	-45	-25	27	-26	26	116	46	3427	46	73277477
165	252	3906	-45	-24	25	-26	26	116	47	3525	47	73277477
147	268	3920	-43	-27	24	-26	26	106	48	3576	48	73277479
171	262	3926	-44	-25	27	-26	26	106	49	3674	49	73277481
153	262	3925	-43	-24	25	-25	25	107	50	3725	50	73277481
159	257	3925	-44	-25	27	-25	25	107	51	3823	51	73277498
165	246	3923	-45	-27	27	-26	20	112	52	3874	52	73277498
166	249	3924	-43	-24	25	-26	20	112	53	3972	53	73277500
156	257	3933	-43	-23	27	-26	26	114	54	4023	54	73277502
166	270	3918	-47	-21	27	-26	26	114	55	4121	55	73277504
159	251	3935	-45	-24	24	-29	27	119	56	4172	56	73277505
166	256	3933	-44	-24	28	-29	27	119	57	4270	57	73277506
156	257	3926	-44	-27	28	-28	26	112	58	4321	58	73277508
162	261	3911	-46	-23	26	-28	26	112	59	4419	59	73277523
164	261	3932	-42	-27	26	-23	19	117	60	4470	60	73277523
165	258	3917	-43	-27	29	-23	19	117	61	4568	61	73277527
167	261	3938	-43	-25	28	-25	19	113	62	4619	62	73277527
174	258	3943	-44	-25	27	-25	19	113	63	4717	63	73277547
156	261	3928	-42	-26	25	-25	23	105	64	4768	64	73277547
159	265	3929	-45	-26	23	-25	23	105	65	4866	65	73277549
170	252	3918	-42	-24	24	-27	21	117	66	4917	66	73277551
168	266	3919	-44	-26	26	-27	21	117	67	5015	67	73277551
156	263	3935	-42	-25	24	-26	26	118	68	5066	68	73277572
169	269	3921	-44	-25	27	-26	26	118	69	5164	69	73277572
168	273	3933	-43	-26	28	-31	21	115	70	5215	70	73277574
171	270	3892	-43	-23	24	-31	21	115	71	5313	71	73277575
175	252	3925	-44	-22	23	-23	27	109	72	5364	72	73277576
168	253	3921	-43	-26	26	-23	27	109	73	5462	73	73277597
158	255	3933	-42	-24	27	-27	19	115	74	5513	74	73277598
169	255	3905	-45	-25	27	-27	19	115	75	5611	75	73277599
180	274	3916	-45	-27	29	-29	25	113	76	5662	76	73277601
165	269	3910	-45	-24	26	-29	25	113	77	5760	77	73277602
165	261	3916	-42	-28	25	-25	27	109	78	5811	78	73277622
165	246	3923	-45	-26	29	-25	27	109	79	5909	79	73277623
160	266	3912	-43	-27	27	-28	22	114	80	5960	80	73277624
178	255	3893	-44	-25	23	-28	22	114	81	6058	81	73277626
169	248	3924	-41	-26	25	-33	27	115	82	6109	82	73277626
174	252	3923	-45	-26	25	-33	27	115	83	6207	83	73277647
160	252	3916	-42	-26	28	-22	22	116	84	6258	84	73277648
183	272	3909	-45	-25	28	-22	22	116	85	6356	85	73277649
165	273	3909	-43	-25	24	-26	20	112	86	6407	86	73277651
176	253	3927	-44	-26	23	-26	20	112	87	6505	87	73277651
163	258	3925	-43	-26	25	-28	24	114	88	6556	88	73277672
162	263	3914	-45	-24	28	-28	24	114	89	6654	89	73277673
166	239	3914	-41	-27	25	-28	22	114	90	6705	90	73277674
160	258	3920	-43	-29	26	-28	22	114	91	6803	91	73277675
174	257	3949	-42	-27	28	-29	25	113	92	6854	92	73277676
163	263	3921	-43	-26	26	-29	25	113	93	6952	93	73277697
168	256	3920	-41	-26	25	-25	23	115	94	7003	94	73277697
161	252	3933	-43	-24	28	-25	23	115	95	7101	95	73277700
175	265	3934	-42	-26	25	-23	23	117	96	7152	96	73277701
175	268	3906	-44	-28	25	-23	23	117	97	7250	97	73277703
185	249	3909	-45	-27	27	-25	23	111	98	7301	98	73277724
161	265	3910	-44	-27	28	-25	23	111	99	7399	99	73277725
164	241	3944	-41	-25	26	-26	24	112	100	7450	100	73277728
167	247	3916	-42	-24	26	-26	24	112	101	7548	101	73277737
168	259	3904	-41	-26	26	-24	22	114	102	7599	102	73277738
165	264	3903	-43	-26	27	-24	22	114	103	7697	103	73277739
171	262	3910	-43	-27	27	-24	26	104	104	7748	104	73277740
166	255	3925	-43	-26	26	-24	26	104	105	7846	105	73277749
165	270	3916	-42	-27	25	-25	25	117	106	7897	106	73277750
163	270	3931	-43	-27	26	-25	25	117	107	7995	107	73277752
166	258	3927	-42	-26	26	-24	20	112	108	8046	108	73277758
158	256	3933	-44	-24	25	-24	20	112	109	8144	109	73277759
176	259	3913	-42	-29	27	-30	26	112	110	8195	110	73277773
171	262	3924	-42	-24	30	-30	26	112	111	8293	111	73277773
153	263	3930	-42	-26	25	-30	20	116	112	8344	112	73277775
162	266	3914	-48	-28	26	-30	20	116	113	8442	113	73277783
170	262	3912	-43	-26	27	-22	28	108	114	8493	114	73277783
172	259	3907	-42	-27	22	-22	28	108	115	8591	115	73277797
174	257	3916	-40	-26	27	-26	20	112	116	8642	116	73277797
175	273	3931	-44	-26	26	-26	20	112	117	8740	117	73277799
172	246	3921	-41	-24	24	-26	22	112	118	8791	118	73277832
153	264	3913	-43	-23	25	-26	22	112	119	8890	119	73277833
159	236	3939	-44	-25	28	-22	22	112	120	8941	120	73277837
172	253	3932	-45	-27	25	-22	22	112	121	9039	121	73277840
182	252	3925	-43	-26	26	-29	29	119	122	9090	122	73277841
170	266	3921	-43	-25	26	-29	29	119	123	9188	123	73277841
173	270	3905	-40	-27	26	-30	18	110	124	9239	124	73277843
174	270	3923	-43	-28	24	-30	18	110	125	9337	125	73277843
171	268	3917	-43	-25	25	-23	23	111	126	9388	126	73277843
175	253	3929	-44	-22	24	-23	23	111	127	9486	127	73277878
172	244	3913	-42	-26	24	-24	20	112	128	9537	128	73277878
164	250	3927	-44	-24	25	-24	20	112	129	9635	129	73277881
162	247	3923	-41	-23	26	-27	23	115	130	9686	130	73277882
162	237	3918	-44	-24	23	-27	23	115	131	9784	131	73277882
187	259	3914	-42	-27	28	-30	26	108	132	9835	132	73277885
172	252	3922	-43	-27	25	-30	26	108	133	9934	133	73277885
169	259	3911	-41	-28	25	-26	28	108	134	9984	134	73277888
167	258	3919	-44	-26	27	-26	28	108	135	10082	135	73277893
164	254	3921	-42	-26	29	-24	20	114	136	10133	136	73277893
182	266	3926	-46	-24	27	-24	20	114	137	10231	137	73277914
153	259	3909	-41	-26	27	-25	21	117	138	10282	138	73277914
171	264	3922	-43	-24	26	-25	21	117	139	10380	139	73277917
170	248	3915	-41	-23	25	-28	22	110	140	10431	140	73277918
159	266	3901	-44	-25	26	-28	22	110	141	10529	141	73277918
151	257	3927	-46	-25	28	-24	28	112	142	10580	142	73277939
169	267	3930	-44	-24	23	-24	28	112	143	10678	143	73277940
164	254	3918	-40	-23	26	-28	24	120	144	10729	144	73277942
170	259	3908	-43	-24	27	-28	24	120	145	10827	145	73277944
172	259	3948	-44	-27	25	-27	23	111	146	10878	146	73277944
183	258	3905	-45	-26	26	-27	23	111	147	10976	147	73277964
162	258	3933	-44	-26	25	-28	22	116	148	11027	148	73277965
163	248	3925	-44	-25	24	-28	22	116	149	11125	149	73277967
183	246	3922	-42	-26	26	-22	22	118	150	11176	150	73277968
174	257	3922	-44	-25	29	-22	22	118	151	11274	151	73277970
166	255	3918	-43	-24	26	-27	25	113	152	11325	152	73277989
158	249	3943	-44	-24	24	-27	25	113	153	11423	153	73277990
165	251	3908	-41	-26	27	-24	24	110	154	11474	154	73277993
168	274	3898	-42	-26	27	-24	24	110	155	11572	155	73277994
169	267	3931	-45	-26	23	-25	25	113	156	11623	156	73277996
171	259	3902	-46	-26	25	-25	25	113	157	11721	157	73278014
156	254	3912	-40	-25	23	-23	21	109	158	11772	158	73278015
162	267	3907	-42	-27	25	-23	21	109	159	11870	159	73278018
166	260	3903	-45	-26	27	-28	22	116	160	11921	160	73278019
163	273	3910	-43	-23	26	-28	22	116	161	12019	161	73278021
180	256	3918	-44	-22	25	-25	27	113	162	12070	162	73278041
170	278	3924	-44	-23	26	-25	27	113	163	12169	163	73278041
169	252	3911	-42	-25	26	-27	23	111	164	12219	164	73278044
158	258	3918	-44	-26	25	-27	23	111	165	12317	165	73278044
169	273	3930	-43	-26	26	-24	26	108	166	12368	166	73278047
174	264	3904	-46	-22	27	-24	26	108	167	12466	167	73278064
169	258	3938	-47	-25	21	-27	27	113	168	12517	168	73278064
176	267	3921	-44	-26	26	-27	27	113	169	12615	169	73278068
170	259	3932	-44	-26	27	-26	22	114	170	12666	170	73278068
173	256	3931	-45	-25	28	-26	22	114	171	12764	171	73278071
152	258	3911	-45	-24	27	-26	22	112	172	12815	172	73278114
167	269	3924	-45	-24	29	-26	22	112	173	12913	173	73278115
160	256	3938	-43	-26	24	-30	26	116	174	12964	174	73278118
177	257	3925	-46	-26	26	-30	26	116	175	13062	175	73278118
170	261	3910	-43	-24	24	-24	22	110	176	13113	176	73278121
162	249	3910	-43	-24	26	-24	22	110	177	13211	177	73278122
165	265	3902	-43	-27	24	-29	27	113	178	13262	178	73278122
170	260	3944	-45	-27	25	-29	27	113	179	13361	179	73278126
156	251	3929	-45	-24	25	-24	24	110	180	13411	180	73278126
174	249	3924	-44	-22	26	-24	24	110	181	13509	181	73278128
181	270	3915	-43	-26	28	-28	24	110	182	13560	182	73278141
166	260	3919	-45	-25	24	-28	24	110	183	13658	183	73278141
162	263	3921	-42	-27	25	-25	25	109	184	13709	184	73278144
184	252	3932	-46	-25	28	-25	25	109	185	13807	185	73278145
168	256	3926	-45	-27	25	-31	29	113	186	13858	186	73278148
168	262	3919	-47	-23	27	-31	29	113	187	13956	187	73278148
171	269	3907	-41	-24	27	-30	26	110	188	14007	188	73278164
185	257	3928	-44	-26	23	-30	26	110	189	14105	189	73278165
164	244	3917	-43	-24	23	-22	26	118	190	14156	190	73278166
176	254	3913	-46	-23	27	-22	26	118	191	14254	191	73278173
170	280	3913	-45	-26	28	-26	24	110	192	14305	192	73278174
171	254	3921	-44	-24	26	-26	24	110	193	14403	193	73278189
165	256	3903	-43	-24	28	-25	23	109	194	14454	194	73278191
167	263	3914	-44	-23	26	-25	23	109	195	14552	195	73278191
182	257	3930	-44	-27	26	-30	24	110	196	14603	196	73278198
156	271	3920	-44	-24	27	-30	24	110	197	14701	197	73278199
158	271	3921	-44	-26	28	-25	21	115	198	14752	198	73278201
175	271	3919	-46	-25	25	-25	21	115	199	14850	199	73278215
164	269	3920	-42	-24	26	-23	23	111	200	14901	200	73278217
168	258	3915	-43	-26	25	-23	23	111	201	14999	201	73278222
183	267	3923	-43	-26	23	-25	21	111	202	15050	202	73278224
165	272	3916	-45	-26	23	-25	21	111	203	15148	203	73278226
155	271	3920	-43	-25	27	-28	24	114	204	15199	204	73278240
165	252	3899	-46	-23	24	-28	24	114	205	15297	205	73278243
150	267	3928	-45	-25	27	-30	24	108	206	15348	206	73278247
176	273	3914	-45	-25	28	-30	24	108	207	15446	207	73278247
171	263	3934	-44	-25	26	-25	25	111	208	15497	208	73278251
168	262	3932	-47	-24	28	-25	25	111	209	15595	209	73278264
182	259	3933	-42	-25	29	-32	18	114	210	15646	210	73278267
153	266	3922	-44	-25	24	-32	18	114	211	15744	211	73278272
181	261	3901	-43	-26	26	-23	25	111	212	15795	212	73278273
169	254	3908	-43	-25	28	-23	25	111	213	15893	213	73278290
165	265	3925	-43	-25	24	-26	16	118	214	15944	214	73278290
164	263	3917	-45	-23	26	-26	16	118	215	16042	215	73278292
164	255	3915	-44	-27	25	-28	26	116	216	16093	216	73278297
176	248	3909	-47	-24	24	-28	26	116	217	16191	217	73278298
163	265	3943	-44	-26	25	-28	24	106	218	16242	218	73278314
181	248	3921	-44	-24	27	-28	24	106	219	16340	219	73278315
175	262	3920	-45	-26	26	-26	26	110	220	16391	220	73278317
171	254	3927	-44	-25	26	-26	26	110	221	16489	221	73278319
154	243	3929	-42	-24	27	-29	25	113	222	16540	222	73278320
180	259	3931	-43	-23	26	-29	25	113	223	16638	223	73278339
164	253	3927	-42	-27	24	-25	17	111	224	16689	224	73278340
174	248	3916	-46	-25	28	-25	17	111	225	16787	225	73278342
166	256	3926	-44	-27	27	-24	24	114	226	16838	226	73278344
168	264	3921	-43	-27	26	-24	24	114	227	16936	227	73278351
163	254	3919	-42	-27	27	-29	25	111	228	16987	228	73278364
153	273	3917	-43	-22	28	-29	25	111	229	17085	229	73278383
176	262	3945	-41	-22	26	-28	24	112	230	17136	230	73278388
168	265	3930	-44	-24	27	-28	24	112	231	17234	231	73278390
161	265	3940	-42	-24	26	-29	23	109	232	17285	232	73278391
166	256	3925	-43	-25	26	-29	23	109	233	17383	233	73278391
160	263	3927	-43	-23	27	-26	20	116	234	17434	234	73278391
157	255	3932	-43	-25	29	-26	20	116	235	17532	235	73278392
157	262	3927	-43	-24	25	-23	25	115	236	17583	236	73278393
153	263	3923	-46	-22	25	-23	25	115	237	17681	237	73278394
153	256	3928	-44	-25	27	-24	22	112	238	17732	238	73278414
169	238	3927	-46	-23	25	-24	22	112	239	17830	239	73278415
155	259	3939	-42	-26	24	-28	30	112	240	17881	240	73278418
164	260	3926	-45	-27	29	-28	30	112	241	17979	241	73278418
189	264	3941	-42	-27	25	-22	24	106	242	18030	242	73278421
181	271	3926	-42	-25	25	-22	24	106	243	18128	243	73278442
173	253	3910	-43	-25	28	-22	22	118	244	18179	244	73278442
161	259	3900	-44	-24	26	-22	22	118	245	18277	245	73278446
176	250	3913	-44	-27	25	-24	24	112	246	18328	246	73278446
154	267	3907	-45	-25	27	-24	24	112	247	18426	247	73278448
160	265	3940	-43	-27	25	-24	20	104	248	18477	248	73278463
171	256	3934	-42	-26	25	-24	20	104	249	18575	249	73278464
172	265	3917	-44	-23	25	-26	24	114	250	18626	250	73278467
164	254	3926	-43	-26	27	-26	24	114	251	18724	251	73278471
176	266	3914	-42	-23	26	-31	25	113	252	18775	252	73278494
166	270	3946	-44	-23	30	-31	25	113	253	18873	253	73278508
171	274	3928	-41	-24	27	-25	21	115	254	18924	254	73278521
163	249	3917	-42	-24	26	-25	21	115	255	19022	255	73278524
154	256	3927	-43	-25	27	-27	27	109	256	19073	256	73278526
158	256	3904	-43	-26	24	-27	27	109	257	19171	257	73278528
167	257	3934	-44	-28	25	-30	30	106	258	19222	258	73278533
163	261	3930	-44	-25	28	-30	30	106	259	19320	259	73278535
164	254	3935	-41	-27	25	-27	21	111	260	19371	260	73278535
162	263	3925	-40	-24	25	-27	21	111	261	19469	261	73278535
161	267	3933	-42	-23	28	-30	28	112	262	19520	262	73278536
161	272	3912	-47	-22	27	-30	28	112	263	19618	263	73278536
159	251	3923	-44	-23	22	-25	29	113	264	19669	264	73278538
170	250	3915	-45	-25	26	-25	29	113	265	19767	265	73278565
161	250	3933	-44	-25	27	-27	23	115	266	19818	266	73278566
153	280	3915	-44	-26	27	-27	23	115	267	19916	267	73278569
168	265	3935	-43	-24	26	-26	24	112	268	19967	268	73278570
161	255	3934	-46	-27	27	-26	24	112	269	20065	269	73278572
157	247	3940	-44	-26	24	-26	26	110	270	20116	270	73278573
173	262	3912	-47	-25	23	-26	26	110	271	20214	271	73278573
163	259	3931	-45	-25	28	-28	26	114	272	20265	272	73278577
170	273	3906	-44	-24	24	-28	26	114	273	20363	273	73278577
192	271	3933	-42	-23	24	-29	27	109	274	20414	274	73278579
156	270	3923	-47	-26	27	-29	27	109	275	20512	275	73278590
169	256	3911	-45	-26	25	-27	23	115	276	20563	276	73278591
167	263	3903	-45	-23	24	-27	23	115	277	20661	277	73278600
162	255	3931	-45	-27	28	-25	25	113	278	20712	278	73278601
166	257	3907	-41	-26	24	-25	25	113	279	20810	279	73278615
159	262	3913	-40	-26	24	-25	23	111	280	20861	280	73278617
175	271	3957	-44	-25	27	-25	23	111	281	20959	281	73278623
184	262	3919	-43	-24	26	-27	25	113	282	21010	282	73278628
175	261	3941	-44	-24	25	-27	25	113	283	21108	283	73278636
159	269	3913	-45	-26	27	-25	21	113	284	21159	284	73278640
184	272	3929	-45	-24	26	-25	21	113	285	21257	285	73278642
178	269	3910	-43	-26	23	-31	19	115	286	21308	286	73278643
168	253	3920	-42	-26	27	-31	19	115	287	21406	287	73278651
178	253	3917	-43	-29	28	-32	24	112	288	21457	288	73278652
174	252	3899	-47	-26	25	-32	24	112	289	21555	289	73278666
170	265	3932	-44	-26	28	-26	26	114	290	21606	290	73278667
171	260	3906	-42	-26	27	-26	26	114	291	21704	291	73278667
149	248	3903	-41	-24	24	-24	26	112	292	21755	292	73278676
157	265	3952	-42	-23	23	-24	26	112	293	21853	293	73278676
177	264	3908	-43	-24	24	-27	19	111	294	21904	294	73278679
176	248	3906	-44	-26	23	-27	19	111	295	22002	295	73278691
181	268	3947	-44	-26	24	-33	23	113	296	22053	296	73278692
170	266	3918	-46	-24	29	-33	23	113	297	22151	297	73278700
172	261	3918	-43	-25	25	-27	21	111	298	22202	298	73278700
180	255	3902	-45	-26	27	-27	21	111	299	22300	299	73278715
153	264	3929	-42	-24	29	-27	21	109	300	22351	300	73278717
156	267	3917	-48	-24	27	-27	21	109	301	22449	301	73278719
181	255	3927	-44	-25	25	-23	25	111	302	22500	302	73278724
167	255	3913	-45	-27	28	-23	25	111	303	22598	303	73278725
184	263	3908	-45	-25	26	-30	26	108	304	22649	304	73278767
177	264	3902	-45	-23	23	-30	26	108	305	22747	305	73278767
169	247	3913	-41	-26	26	-28	26	110	306	22798	306	73278769
180	257	3913	-44	-27	25	-28	26	110	307	22896	307	73278770
178	259	3917	-43	-27	25	-27	23	109	308	22947	308	73278771
172	249	3916	-40	-25	26	-27	23	109	309	23045	309	73278774
165	252	3929	-41	-26	25	-24	26	110	310	23096	310	73278775
161	249	3914	-42	-23	26	-24	26	110	311	23194	311	73278777
170	251	3921	-41	-26	27	-25	21	109	312	23245	312	73278792
173	256	3928	-45	-27	25	-25	21	109	313	23343	313	73278793
182	252	3926	-42	-24	25	-29	17	117	314	23394	314	73278796
149	265	3918	-44	-24	28	-29	17	117	315	23492	315	73278796
171	263	3913	-44	-25	29	-27	25	113	316	23543	316	73278798
155	270	3913	-45	-24	26	-27	25	113	317	23641	317	73278799
157	275	3916	-42	-24	28	-28	26	112	318	23692	318	73278800
175	260	3936	-44	-24	26	-28	26	112	319	23790	319	73278817
168	261	3939	-44	-27	23	-26	16	114	320	23841	320	73278819
183	269	3934	-45	-25	26	-26	16	114	321	23939	321	73278819
162	265	3929	-43	-26	29	-29	23	117	322	23990	322	73278820
172	265	3914	-43	-24	26	-29	23	117	323	24088	323	73278821
168	256	3903	-42	-27	26	-33	23	113	324	24139	324	73278839
155	255	3915	-46	-23	28	-33	23	113	325	24237	325	73278840
159	257	3906	-43	-24	27	-26	24	112	326	24288	326	73278844
168	255	3945	-43	-25	27	-26	24	112	327	24386	327	73278846
180	256	3928	-43	-24	27	-28	26	110	328	24437	328	73278848
181	269	3923	-42	-24	27	-28	26	110	329	24535	329	73278882
172	272	3909	-44	-26	26	-26	16	110	330	24586	330	73278883
170	269	3905	-46	-25	30	-26	16	110	331	24684	331	73278886
168	275	3939	-46	-24	27	-19	25	113	332	24735	332	73278886
157	255	3918	-44	-27	25	-19	25	113	333	24833	333	73278888
163	247	3895	-43	-25	28	-28	28	108	334	24884	334	73278889
159	266	3904	-41	-23	26	-28	28	108	335	24982	335	73278889
178	254	3935	-41	-22	25	-27	23	109	336	25033	336	73278893
179	250	3925	-42	-22	25	-27	23	109	337	25131	337	73278893
162	272	3905	-43	-24	25	-26	22	110	338	25182	338	73278907
176	263	3904	-45	-24	22	-26	22	110	339	25280	339	73278908
176	245	3911	-43	-25	27	-24	24	108	340	25331	340	73278909
151	257	3912	-45	-23	27	-24	24	108	341	25429	341	73278945
172	261	3919	-42	-26	23	-25	21	115	342	25480	342	73278946
169	251	3923	-43	-25	25	-25	21	115	343	25578	343	73278948
161	265	3937	-44	-26	25	-27	23	113	344	25629	344	73278949
174	269	3915	-43	-25	24	-27	23	113	345	25727	345	73278949
153	255	3929	-42	-27	28	-33	25	103	346	25778	346	73278952
162	273	3912	-44	-23	25	-33	25	103	347	25876	347	73278953
177	266	3938	-42	-21	26	-29	23	113	348	25927	348	73278956
163	275	3928	-44	-22	27	-29	23	113	349	26025	349	73278956
170	253	3921	-44	-25	27	-28	22	110	350	26076	350	73278956
156	249	3911	-46	-27	23	-28	22	110	351	26174	351	73278969
174	255	3917	-42	-25	26	-24	28	110	352	26225	352	73278970
197	266	3912	-42	-23	27	-24	28	110	353	26323	353	73278980
177	242	3904	-42	-24	25	-26	20	110	354	26374	354	73278980
161	251	3918	-45	-25	25	-26	20	110	355	26472	355	73278995
173	249	3925	-42	-23	26	-33	21	111	356	26523	356	73278996
150	263	3903	-42	-24	24	-33	21	111	357	26621	357	73278996
170	250	3911	-43	-26	26	-25	29	109	358	26672	358	73279004
169	253	3928	-44	-29	28	-25	29	109	359	26770	359	73279005
191	272	3929	-45	-27	25	-26	20	112	360	26821	360	73279007
168	249	3926	-45	-25	26	-26	20	112	361	26919	361	73279019
179	246	3927	-43	-24	26	-34	24	112	362	26970	362	73279020
168	253	3923	-40	-25	24	-34	24	112	363	27068	363	73279029
173	259	3926	-42	-25	25	-25	21	113	364	27119	364	73279030
175	283	3910	-43	-25	27	-25	21	113	365	27217	365	73279037
165	264	3934	-43	-25	25	-30	24	118	366	27268	366	73279048
169	254	3902	-45	-25	25	-30	24	118	367	27366	367	73279051
166	253	3933	-42	-26	27	-27	27	115	368	27417	368	73279055
164	264	3910	-44	-25	25	-27	27	115	369	27515	369	73279059
173	264	3932	-42	-24	26	-26	18	114	370	27566	370	73279064
188	255	3921	-45	-28	27	-26	18	114	371	27664	371	73279069
179	258	3894	-42	-23	26	-31	29	113	372	27715	372	73279070
156	256	3932	-45	-27	23	-31	29	113	373	27813	373	73279078
183	267	3922	-44	-25	27	-30	26	110	374	27864	374	73279079
175	260	3909	-48	-23	25	-30	26	110	375	27962	375	73279094
168	253	3920	-43	-24	23	-24	20	114	376	28013	376	73279095
174	261	3900	-44	-25	23	-24	20	114	377	28111	377	73279097
161	264	3920	-44	-24	24	-27	23	109	378	28162	378	73279103
178	265	3923	-42	-22	20	-27	23	109	379	28260	379	73279103
169	262	3931	-44	-24	26	-21	17	109	380	28311	380	73279121
175	257	3920	-45	-26	27	-21	17	109	381	28409	381	73279121
156	255	3915	-44	-27	23	-29	21	113	382	28460	382	73279123
154	252	3950	-45	-24	25	-29	21	113	383	28558	383	73279128
177	261	3889	-44	-25	27	-26	26	110	384	28609	384	73279130
162	266	3921	-45	-24	23	-26	26	110	385	28707	385	73279144
174	259	3937	-45	-25	25	-25	21	115	386	28758	386	73279149
169	277	3928	-45	-25	27	-25	21	115	387	28856	387	73279151
159	258	3944	-42	-27	23	-27	25	111	388	28907	388	73279153
162	263	3931	-43	-24	26	-27	25	111	389	29005	389	73279154
167	261	3930	-43	-25	27	-27	27	111	390	29056	390	73279171
160	265	3931	-46	-24	23	-27	27	111	391	29154	391	73279171
159	262	3905	-42	-24	25	-28	22	116	392	29205	392	73279181
173	260	3926	-45	-25	27	-28	22	116	393	29303	393	73279186
170	257	3903	-43	-27	24	-25	29	107	394	29354	394	73279188
164	251	3945	-44	-25	26	-25	29	107	395	29452	395	73279196
178	255	3905	-44	-27	27	-29	23	117	396	29503	396	73279196
153	258	3915	-45	-25	23	-29	23	117	397	29601	397	73279198
169	252	3913	-44	-27	26	-23	27	111	398	29652	398	73279201
159	265	3907	-45	-25	26	-23	27	111	399	29750	399	73279202
169	264	3913	-43	-26	26	-26	22	112	400	29801	400	73279219
166	261	3922	-42	-24	24	-26	22	112	401	29899	401	73279220
176	263	3914	-44	-26	27	-27	25	115	402	29950	402	73279222
184	267	3920	-44	-25	28	-27	25	115	403	30048	403	73279227
164	255	3917	-43	-25	24	-29	27	111	404	30099	404	73279231
167	265	3925	-44	-26	26	-29	27	111	405	30197	405	73279245
148	262	3907	-44	-27	26	-23	21	115	406	30248	406	73279246
155	249	3914	-41	-25	25	-23	21	115	407	30346	407	73279248
172	275	3912	-43	-25	26	-25	31	109	408	30397	408	73279249
170	271	3917	-44	-24	27	-25	31	109	409	30495	409	73279252
174	260	3921	-42	-26	24	-22	22	116	410	30546	410	73279270
163	264	3912	-45	-25	27	-22	22	116	411	30644	411	73279270
163	266	3911	-44	-25	27	-27	23	111	412	30695	412	73279273
164	261	3928	-43	-29	24	-27	23	111	413	30793	413	73279274
161	261	3913	-41	-29	26	-29	29	111	414	30844	414	73279277
160	253	3926	-44	-25	25	-29	29	111	415	30942	415	73279295
161	257	3914	-43	-25	23	-26	22	116	416	30993	416	73279295
174	267	3905	-45	-22	28	-26	22	116	417	31091	417	73279298
172	265	3941	-44	-24	29	-25	29	113	418	31142	418	73279299
180	261	3889	-44	-26	26	-25	29	113	419	31240	419	73279301
169	243	3927	-43	-26	25	-25	23	111	420	31291	420	73279319
174	265	3923	-46	-25	27	-25	23	111	421	31389	421	73279320
152	267	3916	-41	-23	25	-27	23	113	422	31440	422	73279323
152	265	3896	-44	-24	26	-27	23	113	423	31538	423	73279323
175	260	3931	-45	-24	27	-25	25	115	424	31589	424	73279325
165	258	3909	-44	-24	25	-25	25	115	425	31687	425	73279345
171	262	3937	-45	-26	24	-27	25	113	426	31738	426	73279346
169	252	3909	-44	-25	29	-27	25	113	427	31836	427	73279348
162	261	3928	-44	-24	25	-30	26	112	428	31887	428	73279348
174	261	3940	-46	-24	25	-30	26	112	429	31985	429	73279352
174	268	3922	-43	-23	29	-23	23	115	430	32036	430	73279397
169	262	3919	-44	-24	26	-23	23	115	431	32134	431	73279397
155	271	3915	-44	-28	25	-29	21	115	432	32185	432	73279400
165	250	3908	-42	-24	27	-29	21	115	433	32283	433	73279401
173	273	3930	-40	-25	26	-29	23	109	434	32334	434	73279403
180	259	3924	-44	-26	24	-29	23	109	435	32432	435	73279404
165	257	3899	-44	-25	26	-29	29	109	436	32483	436	73279404
163	254	3937	-46	-25	27	-29	29	109	437	32581	437	73279420
146	245	3926	-44	-26	26	-27	29	109	438	32632	438	73279421
165	265	3926	-48	-25	28	-27	29	109	439	32730	439	73279424
163	261	3917	-45	-23	29	-30	22	112	440	32781	440	73279425
165	258	3912	-44	-24	26	-30	22	112	441	32879	441	73279427
193	260	3930	-43	-23	27	-20	18	116	442	32930	442	73279428
169	260	3896	-43	-23	25	-20	18	116	443	33028	443	73279429
177	269	3916	-43	-26	26	-27	23	113	444	33079	444	73279444
173	257	3914	-44	-26	26	-27	23	113	445	33177	445	73279445
158	253	3928	-42	-25	27	-21	21	113	446	33228	446	73279446
179	264	3912	-43	-27	24	-21	21	113	447	33326	447	73279448
166	262	3927	-41	-26	27	-26	28	114	448	33377	448	73279448
160	252	3924	-43	-23	28	-26	28	114	449	33475	449	73279469
162	273	3920	-41	-23	27	-25	19	107	450	33526	450	73279470
166	280	3913	-44	-25	23	-25	19	107	451	33624	451	73279476
176	270	3940	-45	-28	28	-23	25	115	452	33675	452	73279478
165	243	3924	-46	-28	25	-23	25	115	453	33773	453	73279478
176	277	3904	-43	-26	24	-29	21	111	454	33824	454	73279495
165	266	3915	-42	-25	26	-29	21	111	455	33922	455	73279496
158	254	3930	-44	-26	25	-21	23	113	456	33973	456	73279497
169	258	3903	-44	-25	25	-21	23	113	457	34071	457	73279498
161	258	3922	-41	-27	27	-29	27	119	458	34122	458	73279498
171	237	3922	-44	-26	26	-29	27	119	459	34220	459	73279520
174	263	3934	-41	-26	27	-26	26	110	460	34271	460	73279521
182	252	3929	-42	-29	29	-26	26	110	461	34369	461	73279523
165	256	3922	-42	-27	29	-26	20	116	462	34420	462	73279524
167	273	3928	-44	-25	24	-26	20	116	463	34518	463	73279524
163	263	3908	-45	-25	27	-23	25	107	464	34569	464	73279546
181	247	3911	-43	-24	25	-23	25	107	465	34667	465	73279546
177	251	3908	-43	-25	23	-27	25	111	466	34718	466	73279548
178	241	3905	-44	-25	26	-27	25	111	467	34816	467	73279549
181	249	3902	-44	-24	28	-22	26	110	468	34867	468	73279552
168	258	3913	-44	-27	26	-22	26	110	469	34965	469	73279555
159	263	3929	-44	-27	25	-29	27	111	470	35016	470	73279555
164	256	3906	-44	-24	25	-29	27	111	471	35114	471	73279569
181	268	3930	-43	-25	22	-26	22	116	472	35165	472	73279571
155	251	3931	-43	-25	25	-26	22	116	473	35263	473	73279573
172	250	3922	-43	-23	29	-26	26	110	474	35314	474	73279604
173	270	3902	-45	-25	26	-26	26	110	475	35412	475	73279605
176	259	3926	-42	-28	25	-29	25	115	476	35463	476	73279608
168	263	3919	-43	-24	27	-29	25	115	477	35561	477	73279608
166	257	3905	-42	-26	26	-25	27	109	478	35612	478	73279611
171	264	3919	-44	-28	26	-25	27	109	479	35710	479	73279613
163	256	3925	-41	-26	27	-26	24	110	480	35761	480	73279613
159	254	3930	-45	-25	27	-26	24	110	481	35859	481	73279616
177	266	3896	-44	-26	24	-28	26	112	482	35910	482	73279616
152	255	3900	-43	-25	27	-28	26	112	483	36008	483	73279619
162	258	3928	-45	-27	26	-27	19	119	484	36059	484	73279642
180	250	3908	-43	-24	26	-27	19	119	485	36157	485	73279643
173	263	3920	-42	-27	27	-27	21	117	486	36208	486	73279645
170	251	3938	-44	-25	25	-27	21	117	487	36306	487	73279645
162	256	3901	-43	-25	24	-28	28	104	488	36357	488	73279647
167	256	3902	-44	-24	30	-28	28	104	489	36455	489	73279664
183	252	3922	-44	-24	26	-24	22	112	490	36506	490	73279684
174	273	3922	-42	-25	23	-24	22	112	491	36604	491	73279698
158	256	3909	-43	-25	28	-26	28	110	492	36655	492	73279724
175	255	3919	-44	-23	26	-26	28	110	493	36753	493	73279727
165	262	3922	-42	-24	23	-26	20	112	494	36804	494	73279730
159	262	3937	-44	-26	26	-26	20	112	495	36902	495	73279733
165	271	3917	-43	-25	28	-32	24	116	496	36953	496	73279734
177	264	3932	-45	-26	27	-32	24	116	497	37051	497	73279734
152	260	3943	-46	-25	28	-26	28	110	498	37102	498	73279735
161	250	3936	-45	-24	25	-26	28	110	499	37200	499	73279735
164	256	3930	-45	-26	25	-21	23	111	500	37251	500	73279735
157	265	3905	-44	-26	28	-21	23	111	501	37349	501	73279736
160	263	3897	-43	-27	29	-26	26	112	502	37400	502	73279736
168	253	3907	-44	-26	26	-26	26	112	503	37498	503	73279737
167	246	3908	-44	-24	24	-32	20	114	504	37549	504	73279738
157	262	3927	-43	-24	28	-32	20	114	505	37647	505	73279741
178	267	3935	-42	-24	24	-24	24	112	506	37698	506	73279743
168	272	3926	-45	-22	24	-24	24	112	507	37796	507	73279746
172	255	3947	-44	-23	27	-22	24	110	508	37847	508	73279764
171	267	3919	-43	-24	24	-22	24	110	509	37945	509	73279765
164	260	3904	-42	-26	25	-28	24	118	510	37996	510	73279767
171	256	3947	-45	-25	28	-28	24	118	511	38094	511	73279768
165	247	3929	-42	-26	26	-25	23	117	512	38145	512	73279768
178	275	3907	-44	-22	27	-25	23	117	513	38243	513	73279789
171	256	3914	-44	-27	27	-26	20	110	514	38294	514	73279791
161	265	3914	-48	-29	27	-26	20	110	515	38392	515	73279792
166	268	3899	-42	-26	25	-32	24	116	516	38443	516	73279793
179	270	3917	-44	-23	26	-32	24	116	517	38541	517	73279794
165	264	3914	-42	-23	28	-27	25	111	518	38592	518	73279814
169	259	3914	-42	-22	28	-27	25	111	519	38690	519	73279815
158	269	3908	-42	-25	26	-23	23	113	520	38741	520	73279817
169	253	3934	-44	-22	28	-23	23	113	521	38839	521	73279818
179	255	3917	-42	-24	24	-29	23	107	522	38890	522	73279819
169	266	3903	-42	-24	27	-29	23	107	523	38988	523	73279838
157	256	3935	-41	-26	27	-26	22	112	524	39039	524	73279839
172	269	3908	-44	-25	26	-26	22	112	525	39137	525	73279840
158	261	3923	-45	-29	27	-27	23	119	526	39188	526	73279842
164	264	3897	-47	-25	27	-27	23	119	527	39286	527	73279847
167	267	3913	-41	-27	27	-29	21	113	528	39337	528	73279864
165	260	3904	-43	-30	26	-29	21	113	529	39435	529	73279869
182	266	3892	-44	-25	28	-27	23	113	530	39486	530	73279900
159	249	3896	-45	-24	26	-27	23	113	531	39584	531	73279913
158	270	3902	-44	-24	27	-25	27	111	532	39635	532	73279920
169	263	3907	-46	-26	25	-25	27	111	533	39733	533	73279952
160	256	3955	-45	-25	26	-28	26	110	534	39784	534	73279955
165	265	3942	-46	-27	26	-28	26	110	535	39882	535	73279964
159	266	3914	-45	-27	29	-23	23	115	536	39933	536	73279984
170	259	3936	-45	-26	28	-23	23	115	537	40031	537	73280007
154	263	3935	-45	-25	24	-23	23	113	538	40082	538	73280014
169	265	3923	-44	-26	26	-23	23	113	539	40180	539	73280023
163	247	3923	-47	-26	25	-25	23	111	540	40231	540	73280026
174	262	3931	-45	-25	25	-25	23	111	541	40329	541	73280029
154	270	3923	-45	-26	27	-27	31	109	542	40380	542	73280031
174	259	3935	-44	-26	27	-27	31	109	543	40478	543	73280037
170	257	3914	-46	-24	26	-31	29	111	544	40529	544	73280042
171	268	3904	-43	-24	28	-31	29	111	545	40627	545	73280045
171	273	3942	-47	-26	26	-32	24	108	546	40678	546	73280046
168	252	3930	-48	-27	25	-32	24	108	547	40776	547	73280050
169	260	3920	-41	-26	27	-26	22	114	548	40827	548	73280052
166	263	3904	-43	-24	26	-26	22	114	549	40925	549	73280063
172	262	3925	-43	-28	24	-33	23	115	550	40976	550	73280109
182	264	3903	-42	-24	27	-33	23	115	551	41074	551	73280119
163	263	3932	-43	-26	27	-29	27	109	552	41125	552	73280147
158	262	3915	-44	-23	26	-29	27	109	553	41223	553	73280152
160	270	3923	-41	-27	28	-24	26	114	554	41274	554	73280156
174	247	3926	-43	-25	27	-24	26	114	555	41372	555	73280159
164	264	3910	-42	-22	26	-24	28	112	556	41423	556	73280163
174	265	3934	-44	-24	27	-24	28	112	557	41521	557	73280166
164	256	3917	-41	-23	28	-29	23	113	558	41572	558	73280174
176	248	3928	-43	-25	26	-29	23	113	559	41670	559	73280198
167	257	3919	-44	-24	26	-25	27	109	560	41721	560	73280204
165	262	3929	-43	-26	28	-25	27	109	561	41819	561	73280205
161	260	3937	-44	-25	22	-29	23	111	562	41870	562	73280215
175	268	3912	-45	-24	27	-29	23	111	563	41968	563	73280251
160	258	3933	-42	-24	27	-26	30	114	564	42019	564	73280260
170	268	3923	-42	-25	25	-26	30	114	565	42117	565	73280306
153	266	3947	-40	-27	25	-33	25	107	566	42168	566	73280313
170	262	3915	-44	-25	28	-33	25	107	567	42266	567	73280318
176	271	3918	-44	-26	24	-33	27	109	568	42317	568	73280319
178	267	3893	-44	-23	24	-33	27	109	569	42415	569	73280323
164	274	3914	-42	-26	29	-22	26	116	570	42466	570	73280329
164	251	3925	-42	-25	27	-22	26	116	571	42564	571	73280333
172	259	3920	-46	-25	24	-28	26	112	572	42615	572	73280336
172	269	3911	-45	-22	25	-28	26	112	573	42714	573	73280353
189	266	3926	-42	-22	25	-25	23	109	574	42764	574	73280355
181	266	3912	-47	-22	24	-25	23	109	575	42862	575	73280403
166	260	3915	-44	-24	26	-31	27	115	576	42913	576	73280416
173	253	3931	-43	-22	26	-31	27	115	577	43011	577	73280421
166	255	3928	-44	-25	21	-27	21	113	578	43062	578	73280433
168	266	3908	-45	-23	26	-27	21	113	579	43160	579	73280435
179	261	3914	-45	-26	26	-26	24	112	580	43211	580	73280443
165	245	3919	-44	-26	26	-26	24	112	581	43309	581	73280452
171	260	3924	-42	-25	25	-28	24	108	582	43360	582	73280457
165	250	3905	-43	-22	27	-28	24	108	583	43458	583	73280458
157	262	3930	-43	-25	25	-30	18	112	584	43509	584	73280459
155	265	3922	-46	-23	29	-30	18	112	585	43607	585	73280463
165	266	3904	-43	-24	26	-30	20	112	586	43658	586	73280466
167	257	3922	-45	-23	26	-30	20	112	587	43756	587	73280472
171	261	3926	-43	-28	26	-31	21	113	588	43807	588	73280474
175	280	3926	-45	-22	25	-31	21	113	589	43905	589	73280476
153	253	3894	-45	-23	25	-25	19	117	590	43956	590	73280479
160	258	3919	-45	-22	26	-25	19	117	591	44054	591	73280480
162	258	3902	-45	-24	27	-27	27	115	592	44105	592	73280484
163	250	3925	-43	-25	25	-27	27	115	593	44203	593	73280490
171	258	3920	-42	-25	27	-25	23	113	594	44254	594	73280506
163	257	3915	-42	-23	29	-25	23	113	595	44352	595	73280521
165	263	3917	-39	-25	27	-24	28	108	596	44403	596	73280530
164	269	3924	-41	-23	27	-24	28	108	597	44501	597	73280536
181	248	3905	-44	-24	27	-27	23	111	598	44552	598	73280545
154	241	3919	-44	-24	24	-27	23	111	599	44650	599	73280553
168	250	3927	-43	-24	26	-26	22	112	600	44701	600	73280558
167	256	3922	-46	-25	29	-26	22	112	601	44800	601	73280565
177	256	3895	-43	-25	25	-28	28	106	602	44850	602	73280570
175	261	3884	-44	-25	26	-28	28	106	603	44948	603	73280576
166	268	3923	-44	-26	26	-23	23	115	604	44999	604	73280581
166	258	3925	-42	-25	26	-23	23	115	605	45097	605	73280583
146	260	3902	-43	-24	25	-28	28	108	606	45148	606	73280587
174	259	3910	-44	-22	27	-28	28	108	607	45246	607	73280592
158	275	3916	-41	-24	26	-27	23	113	608	45297	608	73280596
163	262	3908	-44	-25	24	-27	23	113	609	45395	609	73280602
169	265	3901	-44	-21	27	-24	22	114	610	45446	610	73280606
178	264	3936	-43	-25	26	-24	22	114	611	45544	611	73280608
172	264	3906	-41	-24	23	-25	27	113	612	45595	612	73280613
171	270	3917	-42	-25	27	-25	27	113	613	45693	613	73280617
167	260	3927	-40	-27	26	-23	23	115	614	45745	614	73280619
164	262	3935	-43	-24	26	-23	23	115	615	45843	615	73280625
184	253	3905	-44	-24	28	-30	26	110	616	45894	616	73280653
171	254	3925	-45	-22	28	-30	26	110	617	45992	617	73280670
165	260	3914	-45	-23	26	-27	25	115	618	46043	618	73280673
158	257	3924	-44	-25	27	-27	25	115	619	46141	619	73280675
159	272	3916	-44	-28	28	-28	30	116	620	46192	620	73280681
158	261	3925	-43	-23	24	-28	30	116	621	46290	621	73280686
165	251	3933	-45	-25	27	-31	23	111	622	46341	622	73280689
161	258	3935	-46	-23	27	-31	23	111	623	46439	623	73280693
160	258	3936	-44	-26	23	-23	21	113	624	46490	624	73280715
173	265	3916	-44	-28	25	-23	21	113	625	46588	625	73280721
167	248	3919	-42	-29	27	-24	26	114	626	46639	626	73280737
172	254	3922	-44	-23	25	-24	26	114	627	46737	627	73280753
168	275	3908	-43	-24	25	-29	27	115	628	46788	628	73280782
169	255	3939	-45	-25	27	-29	27	115	629	46886	629	73280784
159	263	3932	-45	-26	24	-26	28	110	630	46937	630	73280803
175	272	3924	-45	-25	26	-26	28	110	631	47035	631	73280815
166	261	3911	-41	-27	28	-25	23	111	632	47086	632	73280818
170	277	3921	-45	-25	25	-25	23	111	633	47184	633	73280820
172	265	3915	-43	-24	25	-23	17	113	634	47235	634	73280824
172	267	3919	-44	-22	27	-23	17	113	635	47333	635	73280826
170	269	3928	-45	-25	28	-25	29	113	636	47384	636	73280830
168	260	3910	-43	-26	25	-25	29	113	637	47482	637	73280834
164	258	3929	-42	-26	27	-25	21	117	638	47533	638	73280857
165	268	3934	-45	-24	27	-25	21	117	639	47631	639	73280864
183	257	3912	-43	-25	26	-32	26	110	640	47682	640	73280864
181	264	3925	-45	-26	28	-32	26	110	641	47780	641	73280865
159	261	3931	-44	-25	26	-22	22	110	642	47831	642	73280866
168	266	3913	-43	-25	26	-22	22	110	643	47929	643	73280868
160	248	3922	-43	-26	27	-24	24	114	644	47980	644	73280869
166	273	3911	-44	-26	27	-24	24	114	645	48078	645	73280870
163	263	3921	-43	-25	24	-28	28	110	646	48129	646	73280870
179	251	3913	-44	-27	28	-28	28	110	647	48227	647	73280871
178	255	3919	-45	-27	26	-26	22	116	648	48278	648	73280873
157	266	3944	-45	-27	25	-26	22	116	649	48376	649	73280874
164	269	3923	-41	-25	25	-26	24	116	650	48427	650	73280874
171	256	3920	-43	-25	27	-26	24	116	651	48525	651	73280875
176	271	3922	-44	-25	24	-24	24	108	652	48576	652	73280875
177	261	3933	-43	-25	26	-24	24	108	653	48674	653	73280877
159	256	3923	-42	-25	28	-21	23	117	654	48725	654	73280878
172	269	3897	-43	-25	26	-21	23	117	655	48823	655	73280879
169	260	3912	-43	-26	26	-26	22	114	656	48874	656	73280880
149	265	3913	-43	-25	27	-26	22	114	657	48972	657	73280883
168	268	3932	-41	-27	24	-29	23	115	658	49023	658	73280904
157	264	3925	-47	-25	25	-29	23	115	659	49121	659	73280930
150	270	3940	-41	-24	26	-30	22	118	660	49172	660	73280935
166	259	3926	-41	-25	24	-30	22	118	661	49270	661	73280963
166	273	3933	-45	-26	26	-31	27	111	662	49321	662	73280968
169	264	3920	-45	-24	26	-31	27	111	663	49419	663	73280979
171	261	3899	-43	-23	25	-30	20	118	664	49470	664	73280987
157	266	3892	-46	-26	23	-30	20	118	665	49568	665	73280990
162	261	3917	-44	-25	29	-30	20	108	666	49619	666	73281007
174	259	3905	-43	-26	25	-30	20	108	667	49717	667	73281023
166	269	3918	-45	-27	25	-25	21	115	668	49768	668	73281025
162	269	3911	-45	-26	28	-25	21	115	669	49866	669	73281030
177	251	3924	-45	-25	26	-30	28	114	670	49917	670	73281055
160	248	3917	-45	-25	24	-30	28	114	671	50015	671	73281061
178	260	3917	-44	-24	27	-26	24	110	672	50066	672	73281098
159	266	3917	-44	-23	27	-26	24	110	673	50164	673	73281102
148	261	3912	-44	-24	23	-21	21	117	674	50215	674	73281106
175	260	3915	-47	-25	25	-21	21	117	675	50313	675	73281133
155	271	3926	-43	-25	26	-26	26	112	676	50364	676	73281138
152	255	3919	-46	-23	24	-26	26	112	677	50462	677	73281153
171	268	3916	-43	-25	27	-26	28	112	678	50513	678	73281157
158	256	3907	-44	-23	30	-26	28	112	679	50611	679	73281179
175	269	3928	-43	-25	25	-25	25	115	680	50662	680	73281185
166	264	3911	-43	-24	26	-25	25	115	681	50760	681	73281186
162	260	3929	-41	-26	26	-32	26	112	682	50811	682	73281189
170	257	3897	-48	-22	24	-32	26	112	683	50909	683	73281196
157	264	3917	-45	-23	25	-29	31	107	684	50960	684	73281201
157	258	3921	-43	-22	28	-29	31	107	685	51058	685	73281205
170	265	3922	-41	-25	28	-25	23	111	686	51109	686	73281207
165	249	3931	-43	-25	26	-25	23	111	687	51207	687	73281213
158	261	3930	-46	-24	27	-24	24	112	688	51258	688	73281215
173	251	3889	-44	-26	26	-24	24	112	689	51356	689	73281218
173	268	3914	-43	-24	23	-26	20	110	690	51407	690	73281221
160	255	3894	-45	-24	27	-26	20	110	691	51505	691	73281228
151	260	3918	-41	-25	26	-30	24	118	692	51556	692	73281236
174	265	3922	-41	-22	23	-30	24	118	693	51654	693	73281239
162	261	3921	-42	-25	26	-31	25	115	694	51705	694	73281244
151	256	3927	-46	-23	27	-31	25	115	695	51803	695	73281247
178	265	3892	-43	-25	26	-27	25	113	696	51854	696	73281251
165	262	3926	-43	-24	29	-27	25	113	697	51952	697	73281266
168	256	3948	-43	-23	25	-24	28	112	698	52003	698	73281283
158	245	3898	-43	-27	23	-24	28	112	699	52101	699	73281285
178	269	3932	-45	-27	25	-27	29	117	700	52152	700	73281307
162	260	3932	-46	-24	27	-27	29	117	701	52250	701	73281341
179	273	3931	-42	-23	26	-30	24	118	702	52301	702	73281362
185	271	3933	-46	-25	26	-30	24	118	703	52399	703	73281364
169	267	3931	-43	-27	29	-25	21	115	704	52450	704	73281368
153	253	3910	-43	-23	27	-25	21	115	705	52548	705	73281371
156	252	3913	-43	-21	27	-28	24	110	706	52599	706	73281377
168	263	3913	-45	-23	26	-28	24	110	707	52697	707	73281379
179	249	3940	-44	-25	25	-25	23	113	708	52748	708	73281380
153	258	3921	-43	-24	26	-25	23	113	709	52846	709	73281383
162	261	3938	-43	-24	27	-28	22	116	710	52897	710	73281387
151	259	3916	-43	-22	25	-28	22	116	711	52995	711	73281389
150	263	3908	-42	-25	29	-26	24	110	712	53046	712	73281391
170	265	3898	-40	-24	28	-26	24	110	713	53144	713	73281395
181	255	3902	-43	-22	25	-27	23	119	714	53195	714	73281400
169	257	3921	-44	-24	25	-27	23	119	715	53293	715	73281405
159	261	3926	-43	-25	25	-24	28	112	716	53344	716	73281407
169	256	3910	-44	-25	24	-24	28	112	717	53442	717	73281411
168	254	3914	-39	-26	24	-24	18	114	718	53493	718	73281417
162	249	3911	-42	-27	25	-24	18	114	719	53591	719	73281420
167	260	3932	-43	-28	25	-25	21	115	720	53642	720	73281422
156	256	3920	-44	-24	26	-25	21	115	721	53740	721	73281424
148	259	3939	-41	-26	29	-28	26	110	722	53791	722	73281426
170	254	3934	-41	-30	27	-28	26	110	723	53889	723	73281429
160	263	3916	-42	-25	25	-26	26	112	724	53940	724	73281459
174	257	3915	-44	-25	27	-26	26	112	725	54038	725	73281465
156	261	3916	-44	-26	28	-25	31	113	726	54089	726	73281467
163	261	3902	-44	-24	24	-25	31	113	727	54187	727	73281469
155	250	3949	-42	-26	28	-27	25	105	728	54238	728	73281473
162	247	3933	-45	-25	24	-27	25	105	729	54336	729	73281475
153	276	3907	-45	-24	26	-25	19	107	730	54387	730	73281480
169	256	3937	-46	-25	29	-25	19	107	731	54485	731	73281487
153	275	3926	-44	-25	30	-26	22	112	732	54536	732	73281491
177	268	3916	-44	-28	28	-26	22	112	733	54634	733	73281505
173	250	3928	-45	-25	27	-29	21	113	734	54685	734	73281506
182	265	3919	-45	-24	25	-29	21	113	735	54783	735	73281508
140	261	3910	-44	-24	25	-29	23	119	736	54834	736	73281515
157	262	3912	-42	-23	26	-29	23	119	737	54932	737	73281523
169	265	3941	-44	-26	28	-27	25	115	738	54983	738	73281528
174	257	3938	-43	-27	24	-27	25	115	739	55081	739	73281530
165	265	3921	-43	-27	27	-27	21	119	740	55132	740	73281537
165	271	3923	-43	-26	27	-27	21	119	741	55230	741	73281540
158	255	3912	-43	-24	25	-26	28	106	742	55281	742	73281542
163	257	3914	-42	-23	25	-26	28	106	743	55379	743	73281546
168	241	3914	-41	-26	27	-23	23	113	744	55430	744	73281551
160	244	3920	-43	-24	27	-23	23	113	745	55528	745	73281552
163	258	3925	-42	-24	26	-32	26	106	746	55579	746	73281554
174	263	3905	-44	-24	26	-32	26	106	747	55677	747	73281557
173	258	3912	-44	-26	26	-28	28	112	748	55728	748	73281604
162	263	3927	-42	-25	26	-28	28	112	749	55826	749	73281614
172	257	3920	-44	-26	23	-22	22	114	750	55877	750	73281618
164	261	3924	-45	-26	22	-22	22	114	751	55975	751	73281620
171	248	3930	-43	-27	25	-27	25	107	752	56026	752	73281624
157	258	3909	-44	-26	27	-27	25	107	753	56124	753	73281628
165	258	3941	-45	-27	27	-29	23	115	754	56175	754	73281630
159	289	3937	-43	-26	27	-29	23	115	755	56273	755	73281634
161	275	3954	-43	-27	27	-29	31	111	756	56324	756	73281637
166	261	3953	-43	-24	27	-29	31	111	757	56422	757	73281640
159	261	3917	-43	-24	25	-25	25	109	758	56473	758	73281646
179	270	3925	-42	-26	29	-25	25	109	759	56571	759	73281649
168	268	3929	-44	-26	27	-24	22	118	760	56622	760	73281650
158	269	3906	-44	-25	25	-24	22	118	761	56720	761	73281652
175	265	3901	-42	-24	27	-22	22	112	762	56771	762	73281658
179	268	3944	-47	-22	27	-22	22	112	763	56869	763	73281666
155	270	3922	-41	-26	24	-27	19	117	764	56920	764	73281671
168	262	3918	-43	-25	25	-27	19	117	765	57018	765	73281674
161	268	3906	-44	-26	25	-31	25	115	766	57069	766	73281678
167	259	3922	-44	-26	25	-31	25	115	767	57167	767	73281699
160	268	3907	-41	-28	27	-25	23	115	768	57218	768	73281705
159	267	3928	-44	-26	27	-25	23	115	769	57316	769	73281713
167	262	3898	-43	-25	25	-31	25	115	770	57367	770	73281718
164	255	3912	-44	-26	28	-31	25	115	771	57465	771	73281721
168	259	3902	-43	-26	28	-25	29	113	772	57516	772	73281723
178	249	3908	-43	-25	25	-25	29	113	773	57614	773	73281727
175	256	3900	-44	-26	29	-27	19	113	774	57665	774	73281730
158	253	3924	-43	-24	31	-27	19	113	775	57763	775	73281733
149	268	3923	-42	-24	25	-25	21	111	776	57814	776	73281736
172	252	3906	-44	-23	26	-25	21	111	777	57912	777	73281738
170	271	3922	-42	-26	27	-25	21	115	778	57963	778	73281741
158	260	3916	-44	-26	24	-25	21	115	779	58061	779	73281746
172	254	3934	-43	-25	26	-19	23	109	780	58112	780	73281753
182	268	3924	-42	-24	29	-19	23	109	781	58210	781	73281758
162	263	3917	-43	-25	26	-24	24	112	782	58261	782	73281764
164	258	3925	-44	-24	26	-24	24	112	783	58359	783	73281766
173	248	3938	-45	-23	27	-30	20	116	784	58410	784	73281768
174	253	3935	-43	-25	25	-30	20	116	785	58508	785	73281770
171	271	3946	-46	-24	26	-27	27	113	786	58559	786	73281772
169	277	3909	-47	-24	27	-27	27	113	787	58657	787	73281775
148	266	3910	-43	-25	25	-28	26	114	788	58708	788	73281780
150	262	3914	-42	-25	25	-28	26	114	789	58806	789	73281783
143	250	3922	-44	-24	29	-26	26	114	790	58857	790	73281786
165	255	3904	-45	-20	28	-26	26	114	791	58955	791	73281797
163	277	3912	-43	-22	25	-23	21	113	792	59006	792	73281801
148	254	3907	-42	-21	29	-23	21	113	793	59104	793	73281807
167	256	3909	-42	-25	26	-29	21	115	794	59155	794	73281813
178	265	3930	-42	-27	26	-29	21	115	795	59253	795	73281821
173	252	3938	-44	-24	25	-28	22	110	796	59304	796	73281829
184	263	3897	-46	-24	29	-28	22	110	797	59402	797	73281854
163	258	3910	-43	-22	26	-27	23	117	798	59453	798	73281871
160	273	3910	-44	-27	27	-27	23	117	799	59551	799	73281873
163	259	3927	-43	-25	28	-28	26	112	800	59602	800	73281875
163	263	3917	-44	-27	26	-28	26	112	801	59700	801	73281880
155	259	3916	-42	-26	27	-28	26	110	802	59751	802	73281884
167	251	3930	-44	-25	26	-28	26	110	803	59849	803	73281888
171	251	3922	-44	-26	25	-26	22	112	804	59900	804	73281889
148	262	3932	-44	-26	24	-26	22	112	805	59998	805	73281893
160	268	3901	-42	-25	28	-25	23	111	806	60049	806	73281896
175	271	3900	-45	-27	24	-25	23	111	807	60147	807	73281898
171	255	3939	-43	-26	26	-26	18	112	808	60198	808	73281900
169	267	3926	-45	-22	26	-26	18	112	809	60296	809	73281901
160	259	3934	-43	-26	26	-31	27	109	810	60347	810	73281905
172	268	3930	-43	-25	25	-31	27	109	811	60445	811	73281907
164	273	3933	-46	-24	26	-26	24	112	812	60496	812	73281916
162	261	3909	-45	-27	26	-26	24	112	813	60594	813	73281919
151	280	3913	-43	-23	26	-23	19	113	814	60645	814	73281921
164	259	3915	-43	-24	29	-23	19	113	815	60743	815	73281930
171	263	3900	-44	-25	27	-26	26	114	816	60794	816	73281933
142	260	3932	-43	-23	26	-26	26	114	817	60892	817	73281933
164	253	3906	-43	-23	26	-27	23	113	818	60943	818	73281934
166	270	3899	-44	-25	24	-27	23	113	819	61041	819	73281934
166	280	3929	-44	-26	26	-23	27	111	820	61092	820	73281934
169	274	3932	-41	-24	28	-23	27	111	821	61190	821	73281935
180	262	3929	-44	-24	27	-23	25	111	822	61241	822	73281935
160	254	3915	-46	-25	27	-23	25	111	823	61339	823	73281936
159	263	3911	-44	-24	28	-25	19	113	824	61390	824	73281937
161	266	3936	-45	-23	27	-25	19	113	825	61488	825	73281937
168	261	3938	-41	-24	25	-24	24	110	826	61539	826	73281938
165	256	3925	-43	-26	27	-24	24	110	827	61637	827	73281938
176	264	3927	-43	-23	28	-22	22	114	828	61688	828	73281938
174	264	3923	-45	-23	24	-22	22	114	829	61786	829	73281939
170	258	3956	-44	-25	27	-27	27	111	830	61837	830	73281939
158	257	3917	-45	-25	27	-27	27	111	831	61935	831	73281940
164	265	3921	-43	-24	26	-25	17	111	832	61986	832	73281940
183	260	3934	-44	-26	25	-25	17	111	833	62084	833	73281940
165	270	3925	-45	-26	29	-26	20	118	834	62135	834	73281941
174	266	3917	-47	-25	23	-26	20	118	835	62233	835	73281941
183	268	3909	-43	-28	26	-22	26	114	836	62284	836	73281941
175	264	3922	-44	-24	27	-22	26	114	837	62382	837	73281943
160	258	3910	-44	-24	24	-25	21	115	838	62433	838	73281944
173	257	3922	-45	-22	26	-25	21	115	839	62531	839	73281944
164	267	3916	-43	-24	28	-30	24	116	840	62582	840	73281945
170	250	3907	-41	-25	24	-30	24	116	841	62680	841	73281946
161	264	3922	-44	-26	23	-24	24	116	842	62731	842	73281946
159	264	3925	-45	-27	28	-24	24	116	843	62829	843	73281947
161	258	3914	-43	-24	27	-28	24	110	844	62880	844	73281947
165	262	3912	-45	-23	25	-28	24	110	845	62978	845	73281947
155	259	3915	-41	-27	28	-29	25	111	846	63029	846	73281948
167	272	3937	-46	-27	24	-29	25	111	847	63127	847	73281948
165	250	3943	-43	-27	24	-18	22	112	848	63178	848	73281949
164	248	3924	-46	-27	27	-18	22	112	849	63276	849	73281949
168	252	3937	-43	-26	27	-26	24	116	850	63327	850	73281950
164	278	3909	-45	-26	26	-26	24	116	851	63425	851	73281950
170	251	3932	-42	-26	26	-32	26	110	852	63476	852	73281950
159	264	3918	-44	-25	25	-32	26	110	853	63574	853	73281951
166	260	3928	-43	-24	23	-20	28	116	854	63625	854	73281951
156	245	3912	-43	-26	28	-20	28	116	855	63723	855	73281952
157	253	3938	-40	-28	27	-22	26	108	856	63774	856	73281952
175	263	3938	-45	-24	26	-22	26	108	857	63872	857	73281953
165	277	3909	-42	-25	25	-27	21	115	858	63923	858	73281953
170	261	3908	-44	-24	23	-27	21	115	859	64021	859	73281954
166	277	3928	-42	-25	24	-30	24	112	860	64072	860	73281954
174	260	3914	-45	-25	27	-30	24	112	861	64170	861	73281955
179	271	3915	-44	-26	27	-25	27	111	862	64221	862	73281955
154	261	3921	-45	-25	23	-25	27	111	863	64319	863	73281955
164	264	3935	-44	-27	26	-26	26	116	864	64370	864	73281956
177	258	3893	-44	-25	26	-26	26	116	865	64468	865	73281956
171	267	3927	-44	-22	26	-23	19	111	866	64519	866	73281957
164	266	3909	-44	-25	24	-23	19	111	867	64617	867	73281957
166	244	3922	-41	-27	28	-25	17	115	868	64668	868	73281958
168	260	3924	-44	-26	27	-25	17	115	869	64766	869	73281958
168	271	3925	-42	-25	27	-23	25	111	870	64817	870	73281959
172	265	3910	-40	-28	27	-23	25	111	871	64915	871	73281965
172	255	3924	-43	-26	25	-29	27	115	872	64966	872	73281968
160	257	3919	-44	-25	27	-29	27	115	873	65064	873	73281969
151	259	3933	-42	-24	28	-30	20	116	874	65115	874	73281973
178	261	3917	-45	-25	25	-30	20	116	875	65213	875	73281978
166	268	3925	-42	-26	26	-29	25	115	876	65264	876	73281979
172	277	3902	-46	-25	28	-29	25	115	877	65362	877	73281983
172	269	3925	-44	-25	25	-27	23	121	878	65413	878	73281983
159	264	3916	-45	-24	25	-27	23	121	879	65511	879	73281984
168	258	3914	-42	-24	27	-28	28	118	880	65562	880	73281984
158	255	3918	-40	-25	26	-28	28	118	881	65660	881	73281985
167	261	3920	-41	-25	23	-26	24	108	882	65711	882	73281985
157	262	3900	-41	-24	28	-26	24	108	883	65809	883	73281986
153	259	3923	-43	-24	26	-25	25	113	884	65860	884	73281986
167	272	3909	-43	-26	26	-25	25	113	885	65958	885	73281987
166	259	3945	-42	-27	29	-28	24	110	886	66009	886	73281987
172	262	3916	-44	-27	29	-28	24	110	887	66107	887	73281988
176	244	3923	-41	-25	23	-24	18	114	888	66158	888	73281988
180	253	3923	-45	-24	28	-24	18	114	889	66256	889	73281989
172	261	3918	-44	-26	25	-24	26	112	890	66307	890	73281989
183	262	3920	-43	-25	25	-24	26	112	891	66405	891	73281990
172	260	3918	-41	-27	26	-31	23	109	892	66456	892	73281990
172	249	3905	-45	-25	28	-31	23	109	893	66554	893	73281990
161	249	3920	-42	-27	24	-22	24	114	894	66605	894	73281991
155	265	3913	-42	-22	26	-22	24	114	895	66703	895	73281992
168	266	3924	-41	-24	29	-28	24	110	896	66754	896	73281993
163	246	3893	-42	-26	24	-28	24	110	897	66852	897	73281994
167	264	3897	-42	-27	27	-24	18	120	898	66903	898	73281994
158	254	3926	-45	-25	28	-24	18	120	899	67001	899	73281995
160	257	3915	-42	-28	25	-29	23	109	900	67052	900	73281995
159	253	3934	-43	-25	24	-29	23	109	901	67150	901	73281996
161	263	3911	-44	-26	27	-26	26	110	902	67201	902	73281996
174	263	3906	-43	-25	24	-26	26	110	903	67299	903	73281996
156	259	3919	-41	-24	28	-23	21	119	904	67350	904	73281997
162	258	3918	-43	-26	28	-23	21	119	905	67448	905	73281998
164	272	3930	-42	-26	25	-25	27	109	906	67499	906	73281998
166	260	3941	-45	-26	24	-25	27	109	907	67597	907	73281999
169	268	3914	-43	-26	27	-23	19	115	908	67648	908	73282000
164	260	3938	-42	-25	24	-23	19	115	909	67746	909	73282002
169	259	3919	-44	-26	24	-27	25	111	910	67797	910	73282004
176	246	3943	-44	-25	26	-27	25	111	911	67895	911	73282006
177	257	3898	-41	-25	27	-25	23	115	912	67946	912	73282012
167	260	3927	-45	-24	25	-25	23	115	913	68044	913	73282015
165	275	3936	-44	-26	27	-25	23	117	914	68095	914	73282018
154	250	3932	-46	-25	25	-25	23	117	915	68193	915	73282021
166	269	3928	-44	-25	24	-29	25	113	916	68244	916	73282028
160	248	3935	-43	-25	26	-29	25	113	917	68342	917	73282034
153	256	3905	-43	-25	27	-25	21	119	918	68393	918	73282039
168	261	3913	-44	-26	27	-25	21	119	919	68491	919	73282051
154	264	3919	-44	-23	27	-30	20	110	920	68542	920	73282053
156	259	3920	-43	-23	29	-30	20	110	921	68640	921	73282056
176	255	3910	-42	-26	25	-26	22	110	922	68691	922	73282063
165	260	3907	-42	-28	26	-26	22	110	923	68789	923	73282065
171	253	3923	-43	-25	27	-24	22	120	924	68840	924	73282068
172	263	3916	-45	-25	25	-24	22	120	925	68938	925	73282073
169	260	3913	-43	-26	26	-27	25	111	926	68989	926	73282077
180	258	3931	-44	-24	27	-27	25	111	927	69087	927	73282095
159	261	3913	-46	-25	26	-21	21	115	928	69138	928	73282125
167	262	3915	-45	-26	26	-21	21	115	929	69236	929	73282130
150	272	3899	-44	-25	29	-26	26	110	930	69287	930	73282133
158	251	3926	-45	-25	25	-26	26	110	931	69385	931	73282137
161	253	3922	-41	-25	23	-24	26	114	932	69436	932	73282145
160	260	3910	-42	-23	28	-24	26	114	933	69534	933	73282164
168	260	3900	-44	-25	26	-28	28	112	934	69585	934	73282168
173	246	3944	-45	-26	23	-28	28	112	935	69683	935	73282171
160	253	3927	-45	-27	27	-24	30	108	936	69734	936	73282174
165	260	3923	-44	-26	26	-24	30	108	937	69833	937	73282194
158	266	3927	-42	-26	25	-24	26	114	938	69883	938	73282199
161	258	3925	-43	-27	27	-24	26	114	939	69981	939	73282203
166	264	3902	-43	-26	24	-26	22	114	940	70032	940	73282206
179	267	3920	-46	-25	23	-26	22	114	941	70131	941	73282209
158	263	3929	-44	-23	30	-27	27	109	942	70182	942	73282215
170	256	3913	-43	-23	25	-27	27	109	943	70280	943	73282217
157	254	3915	-42	-26	24	-28	22	112	944	70331	944	73282221
160	259	3896	-45	-25	25	-28	22	112	945	70429	945	73282225
165	266	3903	-45	-25	26	-24	30	112	946	70480	946	73282254
169	267	3928	-43	-24	25	-24	30	112	947	70578	947	73282262
160	268	3916	-44	-25	26	-24	22	110	948	70629	948	73282292
162	259	3932	-44	-24	29	-24	22	110	949	70727	949	73282296
171	262	3927	-42	-26	24	-24	26	108	950	70778	950	73282303
150	251	3911	-44	-25	27	-24	26	108	951	70876	951	73282318
167	256	3920	-41	-26	26	-23	23	107	952	70927	952	73282339
159	264	3917	-44	-26	25	-23	23	107	953	71026	953	73282381
176	268	3910	-45	-26	24	-24	24	110	954	71076	954	73282398
149	259	3909	-44	-23	24	-24	24	110	955	71174	955	73282428
169	248	3916	-43	-26	24	-29	27	113	956	71225	956	73282449
172	272	3912	-43	-24	25	-29	27	113	957	71323	957	73282451
161	268	3930	-41	-25	28	-28	22	112	958	71374	958	73282456
173	257	3923	-45	-22	24	-28	22	112	959	71472	959	73282462
168	258	3918	-44	-27	25	-26	22	114	960	71523	960	73282466
173	267	3915	-44	-24	26	-26	22	114	961	71621	961	73282469
172	260	3895	-43	-24	26	-30	26	108	962	71672	962	73282478
157	247	3919	-44	-25	24	-30	26	108	963	71771	963	73282488
161	255	3930	-41	-25	29	-21	23	115	964	71821	964	73282491
162	258	3935	-43	-23	25	-21	23	115	965	71919	965	73282498
171	273	3899	-44	-26	26	-25	25	113	966	71970	966	73282522
155	268	3909	-46	-24	27	-25	25	113	967	72068	967	73282531
174	268	3929	-42	-26	27	-28	22	112	968	72119	968	73282533
169	260	3923	-45	-26	24	-28	22	112	969	72217	969	73282534
171	280	3893	-44	-27	31	-28	22	108	970	72268	970	73282534
163	278	3922	-43	-25	28	-28	22	108	971	72366	971	73282535
179	275	3925	-41	-25	25	-25	25	107	972	72417	972	73282535
165	270	3927	-43	-24	28	-25	25	107	973	72515	973	73282535
139	252	3907	-43	-25	26	-28	24	120	974	72566	974	73282536
155	249	3941	-45	-24	24	-28	24	120	975	72664	975	73282536
172	267	3899	-46	-26	25	-24	30	108	976	72715	976	73282536
176	260	3918	-47	-26	24	-24	30	108	977	72813	977	73282537
177	259	3910	-45	-26	22	-26	22	110	978	72864	978	73282537
165	258	3890	-47	-24	26	-26	22	110	979	72962	979	73282537
165	268	3912	-45	-23	27	-23	25	115	980	73013	980	73282537
165	247	3925	-44	-25	26	-23	25	115	981	73111	981	73282538
156	256	3917	-46	-25	29	-27	21	113	982	73162	982	73282539
165	255	3924	-45	-25	29	-27	21	113	983	73260	983	73282539
155	266	3931	-41	-26	27	-28	22	112	984	73311	984	73282539
167	255	3930	-44	-28	26	-28	22	112	985	73409	985	73282539
150	258	3916	-44	-24	28	-25	23	109	986	73460	986	73282540
161	261	3932	-43	-24	26	-25	23	109	987	73558	987	73282540
161	266	3917	-43	-24	26	-25	23	113	988	73609	988	73282540
156	256	3919	-42	-23	28	-25	23	113	989	73707	989	73282540
182	248	3918	-41	-24	24	-32	22	112	990	73758	990	73282541
171	248	3926	-43	-26	24	-32	22	112	991	73856	991	73282541
173	256	3911	-43	-24	26	-24	26	110	992	73907	992	73282541
168	266	3925	-42	-27	26	-24	26	110	993	74005	993	73282541
164	263	3921	-41	-26	28	-23	25	113	994	74056	994	73282542
188	257	3917	-42	-23	29	-23	25	113	995	74154	995	73282542
179	252	3917	-45	-25	26	-24	22	116	996	74205	996	73282545
165	271	3921	-43	-23	26	-24	22	116	997	74303	997	73282546
171	271	3916	-41	-26	28	-29	23	109	998	74354	998	73282546
157	265	3941	-46	-25	25	-29	23	109	999	74452	999	73282546
161	266	3904	-46	-25	25	-23	23	111	1000	74503	1000	73282547
158	271	3929	-43	-24	26	-23	23	111	1001	74601	1001	73282547
167	249	3929	-42	-26	25	-29	27	111	1002	74652	1002	73282548
182	256	3907	-44	-24	24	-29	27	111	1003	74750	1003	73282549
165	256	3930	-44	-25	29	-26	24	118	1004	74801	1004	73282549
170	262	3909	-44	-26	25	-26	24	118	1005	74899	1005	73282549
157	277	3931	-47	-25	26	-25	25	105	1006	74950	1006	73282550
162	274	3914	-47	-25	28	-25	25	105	1007	75048	1007	73282550
180	261	3937	-43	-24	27	-30	22	112	1008	75099	1008	73282551
165	255	3941	-44	-24	23	-30	22	112	1009	75197	1009	73282551
172	268	3926	-44	-23	28	-27	21	109	1010	75248	1010	73282552
166	264	3906	-45	-23	28	-27	21	109	1011	75346	1011	73282553
175	267	3911	-44	-26	24	-32	28	108	1012	75397	1012	73282553
183	256	3925	-45	-24	26	-32	28	108	1013	75495	1013	73282554
171	262	3917	-43	-24	27	-20	26	116	1014	75546	1014	73282554
163	251	3937	-45	-24	25	-20	26	116	1015	75644	1015	73282554
182	274	3940	-46	-23	28	-25	27	113	1016	75695	1016	73282555
182	269	3901	-47	-23	27	-25	27	113	1017	75793	1017	73282555
166	254	3926	-43	-26	27	-27	25	111	1018	75844	1018	73282556
164	255	3916	-44	-24	26	-27	25	111	1019	75942	1019	73282557
166	260	3923	-42	-27	27	-28	24	112	1020	75993	1020	73282557
170	253	3908	-45	-24	27	-28	24	112	1021	76091	1021	73282557
160	257	3912	-45	-30	25	-24	24	108	1022	76142	1022	73282558
162	260	3927	-48	-28	26	-24	24	108	1023	76240	1023	73282558
173	261	3913	-42	-26	26	-26	24	114	1024	76291	1024	73282559
170	234	3920	-43	-24	24	-26	24	114	1025	76389	1025	73282560
181	252	3913	-43	-21	28	-31	25	109	1026	76440	1026	73282561
170	258	3914	-46	-25	25	-31	25	109	1027	76538	1027	73282561
178	256	3913	-44	-25	23	-23	21	109	1028	76589	1028	73282562
172	263	3909	-42	-24	27	-23	21	109	1029	76687	1029	73282562
167	260	3922	-45	-24	27	-24	18	118	1030	76738	1030	73282563
167	264	3932	-43	-23	28	-24	18	118	1031	76836	1031	73282563
180	267	3904	-43	-25	27	-26	28	112	1032	76887	1032	73282564
169	261	3934	-41	-26	27	-26	28	112	1033	76985	1033	73282564
153	255	3913	-42	-24	25	-29	19	111	1034	77036	1034	73282564
154	255	3899	-43	-21	27	-29	19	111	1035	77134	1035	73282565
171	247	3913	-44	-24	29	-30	18	112	1036	77185	1036	73282565
179	261	3912	-45	-25	26	-30	18	112	1037	77283	1037	73282566
164	273	3922	-44	-26	26	-24	28	112	1038	77334	1038	73282566
162	268	3942	-44	-24	25	-24	28	112	1039	77432	1039	73282566
158	250	3913	-42	-24	22	-27	25	109	1040	77483	1040	73282567
161	267	3919	-44	-25	25	-27	25	109	1041	77581	1041	73282567
165	260	3895	-44	-23	27	-26	16	112	1042	77632	1042	73282567
171	256	3921	-44	-23	25	-26	16	112	1043	77730	1043	73282568
163	275	3924	-43	-26	26	-28	24	112	1044	77781	1044	73282568
168	268	3924	-40	-25	28	-28	24	112	1045	77879	1045	73282569
167	262	3920	-41	-24	25	-28	24	112	1046	77930	1046	73282569
193	265	3912	-43	-24	24	-28	24	112	1047	78028	1047	73282569
169	272	3918	-42	-26	27	-26	26	110	1048	78079	1048	73282570
174	244	3935	-44	-25	22	-26	26	110	1049	78177	1049	73282570
172	261	3928	-45	-24	25	-21	25	109	1050	78228	1050	73282571
158	249	3909	-44	-23	30	-21	25	109	1051	78326	1051	73282571
170	267	3900	-42	-24	26	-28	26	108	1052	78377	1052	73282571
160	253	3913	-46	-22	26	-28	26	108	1053	78475	1053	73282572
170	273	3898	-43	-24	27	-24	22	118	1054	78526	1054	73282572
173	252	3920	-46	-25	26	-24	22	118	1055	78624	1055	73282573
172	269	3935	-43	-27	27	-22	30	116	1056	78675	1056	73282573
158	266	3915	-45	-22	28	-22	30	116	1057	78773	1057	73282573
179	278	3900	-44	-23	26	-27	25	113	1058	78824	1058	73282574
179	277	3909	-42	-24	24	-27	25	113	1059	78922	1059	73282574
177	272	3923	-42	-24	24	-28	24	110	1060	78973	1060	73282575
155	266	3927	-43	-25	25	-28	24	110	1061	79071	1061	73282575
187	270	3912	-44	-24	25	-27	27	115	1062	79122	1062	73282575
180	275	3926	-45	-27	25	-27	27	115	1063	79220	1063	73282577
157	258	3934	-44	-25	26	-28	28	108	1064	79271	1064	73282578
173	246	3922	-43	-22	24	-28	28	108	1065	79369	1065	73282578
169	258	3916	-42	-25	27	-25	27	111	1066	79420	1066	73282578
172	271	3919	-42	-26	25	-25	27	111	1067	79518	1067	73282579
161	265	3920	-41	-25	23	-25	25	111	1068	79569	1068	73282579
155	265	3940	-43	-24	28	-25	25	111	1069	79667	1069	73282579
170	265	3910	-43	-25	30	-24	18	110	1070	79718	1070	73282580
186	256	3895	-44	-24	25	-24	18	110	1071	79816	1071	73282580
174	273	3920	-45	-26	24	-30	24	110	1072	79867	1072	73282581
159	259	3917	-44	-24	26	-30	24	110	1073	79965	1073	73282581
169	271	3907	-44	-24	23	-26	24	108	1074	80016	1074	73282603
178	269	3911	-45	-20	26	-26	24	108	1075	80114	1075	73282604
165	261	3923	-42	-26	28	-23	27	113	1076	80165	1076	73282607
173	268	3948	-42	-28	26	-23	27	113	1077	80264	1077	73282607
154	262	3934	-43	-26	28	-27	25	111	1078	80314	1078	73282610
166	269	3915	-46	-27	29	-27	25	111	1079	80412	1079	73282611
164	256	3936	-40	-27	25	-28	24	106	1080	80463	1080	73282612
173	261	3926	-42	-23	27	-28	24	106	1081	80561	1081	73282628
163	256	3943	-43	-26	28	-27	27	103	1082	80612	1082	73282628
170	260	3910	-43	-21	25	-27	27	103	1083	80710	1083	73282631
162	261	3926	-43	-25	28	-26	26	110	1084	80761	1084	73282633
168	271	3924	-45	-27	30	-26	26	110	1085	80859	1085	73282636
146	269	3924	-44	-25	25	-26	24	114	1086	80910	1086	73282636
150	264	3915	-42	-24	26	-26	24	114	1087	81008	1087	73282638
178	262	3930	-43	-26	28	-28	30	112	1088	81059	1088	73282639
166	260	3905	-43	-26	25	-28	30	112	1089	81157	1089	73282652
156	245	3915	-43	-27	25	-29	21	115	1090	81208	1090	73282653
167	265	3929	-44	-27	28	-29	21	115	1091	81306	1091	73282656
168	264	3926	-42	-28	27	-26	20	114	1092	81357	1092	73282656
178	276	3929	-42	-25	24	-26	20	114	1093	81455	1093	73282677
161	272	3928	-43	-24	27	-29	27	113	1094	81506	1094	73282677
176	255	3934	-46	-24	27	-29	27	113	1095	81605	1095	73282679
168	259	3928	-42	-24	23	-25	21	115	1096	81655	1096	73282681
182	252	3917	-43	-26	26	-25	21	115	1097	81753	1097	73282681
160	256	3915	-46	-25	29	-26	28	116	1098	81804	1098	73282702
170	254	3922	-41	-27	26	-26	28	116	1099	81902	1099	73282703
152	255	3903	-43	-27	28	-28	20	114	1100	81953	1100	73282704
164	264	3914	-44	-26	28	-28	20	114	1101	82051	1101	73282706
153	274	3938	-44	-26	26	-26	24	116	1102	82102	1102	73282706
154	269	3927	-44	-25	29	-26	24	116	1103	82200	1103	73282713
159	261	3938	-41	-27	29	-22	24	114	1104	82251	1104	73282714
161	265	3904	-44	-26	24	-22	24	114	1105	82349	1105	73282727
176	255	3918	-44	-24	27	-22	24	110	1106	82400	1106	73282728
190	255	3902	-43	-24	29	-22	24	110	1107	82499	1107	73282729
148	266	3939	-42	-26	26	-24	24	110	1108	82549	1108	73282738
175	268	3925	-42	-23	24	-24	24	110	1109	82647	1109	73282739
166	267	3915	-42	-27	26	-30	26	112	1110	82698	1110	73282740
164	247	3914	-44	-25	25	-30	26	112	1111	82796	1111	73282753
160	265	3910	-44	-25	27	-27	25	109	1112	82847	1112	73282754
175	262	3937	-46	-25	29	-27	25	109	1113	82945	1113	73282763
170	257	3901	-45	-29	24	-30	24	110	1114	82996	1114	73282764
173	258	3916	-45	-26	22	-30	24	110	1115	83094	1115	73282779
183	262	3930	-45	-27	25	-24	28	114	1116	83145	1116	73282779
166	280	3921	-45	-23	26	-24	28	114	1117	83243	1117	73282780
176	260	3923	-46	-23	23	-29	27	111	1118	83294	1118	73282788
163	251	3911	-45	-22	28	-29	27	111	1119	83392	1119	73282789
173	246	3916	-43	-24	26	-27	23	113	1120	83443	1120	73282791
195	240	3924	-44	-22	28	-27	23	113	1121	83541	1121	73282802
174	258	3920	-42	-26	28	-28	28	116	1122	83592	1122	73282804
169	261	3900	-45	-26	26	-28	28	116	1123	83690	1123	73282812
174	266	3943	-44	-24	25	-34	24	112	1124	83741	1124	73282813
162	270	3917	-45	-24	27	-34	24	112	1125	83839	1125	73282827
160	252	3926	-42	-22	27	-27	21	113	1126	83890	1126	73282827
159	276	3911	-44	-25	25	-27	21	113	1127	83988	1127	73282828
158	263	3936	-43	-26	25	-27	27	111	1128	84039	1128	73282837
175	270	3913	-42	-24	26	-27	27	111	1129	84137	1129	73282838
156	266	3902	-42	-25	22	-26	24	110	1130	84188	1130	73282852
158	257	3911	-43	-26	26	-26	24	110	1131	84286	1131	73282852
173	273	3918	-44	-24	27	-25	27	113	1132	84337	1132	73282854
171	256	3898	-44	-23	25	-25	27	113	1133	84435	1133	73282862
166	261	3899	-42	-24	27	-27	25	117	1134	84486	1134	73282863
161	255	3907	-43	-28	27	-27	25	117	1135	84584	1135	73282877
173	267	3895	-42	-26	23	-20	20	112	1136	84635	1136	73282877
153	256	3938	-41	-23	27	-20	20	112	1137	84733	1137	73282879
154	247	3936	-46	-22	28	-25	23	111	1138	84784	1138	73282887
177	257	3917	-46	-22	24	-25	23	111	1139	84882	1139	73282887
151	264	3927	-45	-25	26	-25	21	115	1140	84933	1140	73282904
155	245	3934	-45	-25	29	-25	21	115	1141	85031	1141	73282905
172	268	3926	-43	-25	25	-25	23	113	1142	85082	1142	73282905
183	254	3924	-42	-21	25	-25	23	113	1143	85180	1143	73282911
170	269	3933	-43	-24	29	-24	28	114	1144	85231	1144	73282922
181	253	3931	-44	-26	26	-24	28	114	1145	85329	1145	73282928
161	260	3933	-44	-28	25	-25	21	113	1146	85380	1146	73282928
164	277	3924	-45	-26	27	-25	21	113	1147	85478	1147	73282930
162	261	3911	-43	-26	26	-21	23	109	1148	85529	1148	73282936
171	268	3921	-41	-23	26	-21	23	109	1149	85627	1149	73282937
165	245	3921	-42	-24	30	-23	25	115	1150	85678	1150	73282954
160	267	3925	-44	-26	28	-23	25	115	1151	85776	1151	73282955
172	260	3932	-44	-23	25	-25	25	117	1152	85827	1152	73282957
169	259	3928	-45	-23	28	-25	25	117	1153	85925	1153	73282958
156	245	3930	-43	-27	27	-30	24	112	1154	85976	1154	73282959
161	264	3911	-45	-26	24	-30	24	112	1155	86074	1155	73282978
156	256	3923	-43	-26	27	-31	23	113	1156	86125	1156	73282978
173	255	3913	-45	-23	26	-31	23	113	1157	86223	1157	73282982
177	262	3913	-43	-25	25	-22	24	114	1158	86274	1158	73282983
164	260	3912	-43	-25	28	-22	24	114	1159	86372	1159	73282985
173	277	3900	-44	-26	25	-23	21	115	1160	86423	1160	73283003
163	250	3935	-46	-22	24	-23	21	115	1161	86521	1161	73283004
161	277	3929	-41	-24	27	-26	26	114	1162	86572	1162	73283007
161	263	3939	-45	-27	28	-26	26	114	1163	86670	1163	73283007
159	249	3933	-41	-23	24	-19	27	111	1164	86721	1164	73283010
173	255	3898	-46	-23	25	-19	27	111	1165	86819	1165	73283027
158	264	3914	-46	-24	27	-31	21	117	1166	86870	1166	73283027
166	260	3901	-43	-26	25	-31	21	117	1167	86968	1167	73283031
164	256	3927	-42	-25	25	-29	23	113	1168	87019	1168	73283033
158	263	3947	-42	-24	28	-29	23	113	1169	87117	1169	73283034
165	260	3909	-42	-24	26	-29	23	115	1170	87168	1170	73283052
179	266	3936	-40	-23	25	-29	23	115	1171	87266	1171	73283052
169	261	3900	-41	-25	28	-25	27	115	1172	87317	1172	73283056
168	251	3920	-43	-25	26	-25	27	115	1173	87415	1173	73283056
167	278	3923	-44	-28	26	-27	27	115	1174	87466	1174	73283060
167	261	3926	-43	-22	24	-27	27	115	1175	87564	1175	73283077
174	269	3924	-43	-26	25	-29	23	113	1176	87615	1176	73283077
181	256	3925	-45	-24	25	-29	23	113	1177	87713	1177	73283081
182	236	3915	-44	-26	28	-19	21	111	1178	87764	1178	73283081
171	248	3916	-45	-24	24	-19	21	111	1179	87862	1179	73283084
164	275	3928	-43	-24	23	-24	22	110	1180	87913	1180	73283102
159	252	3907	-45	-24	27	-24	22	110	1181	88012	1181	73283103
153	265	3924	-45	-24	28	-29	27	113	1182	88062	1182	73283105
190	260	3910	-46	-26	26	-29	27	113	1183	88161	1183	73283106
165	257	3921	-42	-25	27	-25	23	109	1184	88211	1184	73283108
165	252	3911	-42	-24	27	-25	23	109	1185	88310	1185	73283127
163	244	3925	-45	-26	25	-27	19	113	1186	88361	1186	73283128
170	248	3937	-43	-25	27	-27	19	113	1187	88459	1187	73283130
159	248	3925	-44	-26	27	-29	25	115	1188	88510	1188	73283131
154	262	3912	-45	-25	24	-29	25	115	1189	88608	1189	73283152
172	255	3915	-42	-22	25	-27	23	115	1190	88659	1190	73283152
162	254	3889	-45	-22	27	-27	23	115	1191	88757	1191	73283154
152	262	3927	-41	-23	24	-27	23	113	1192	88808	1192	73283156
154	263	3913	-41	-25	27	-27	23	113	1193	88906	1193	73283156
176	255	3923	-42	-26	27	-27	23	109	1194	88957	1194	73283177
170	272	3926	-41	-24	25	-27	23	109	1195	89055	1195	73283179
168	239	3922	-41	-25	28	-28	22	112	1196	89106	1196	73283182
167	244	3915	-43	-25	27	-28	22	112	1197	89204	1197	73283182
172	245	3923	-43	-26	25	-28	28	112	1198	89255	1198	73283182
182	259	3922	-44	-22	27	-28	28	112	1199	89353	1199	73283202
167	250	3919	-43	-23	27	-27	21	107	1200	89404	1200	73283202
167	256	3920	-45	-23	24	-27	21	107	1201	89502	1201	73283204
161	261	3910	-43	-26	26	-28	18	114	1202	89553	1202	73283206
171	270	3905	-44	-26	27	-28	18	114	1203	89651	1203	73283206
168	253	3910	-43	-30	24	-27	25	111	1204	89702	1204	73283234
158	264	3914	-44	-26	24	-27	25	111	1205	89800	1205	73283235
165	282	3913	-43	-26	27	-26	18	112	1206	89851	1206	73283237
166	259	3902	-47	-25	26	-26	18	112	1207	89949	1207	73283238
151	254	3900	-43	-25	24	-27	25	109	1208	90000	1208	73283238
164	262	3923	-47	-24	29	-27	25	109	1209	90098	1209	73283253
172	246	3913	-43	-23	26	-30	22	110	1210	90149	1210	73283254
163	270	3930	-45	-24	26	-30	22	110	1211	90247	1211	73283255
169	260	3917	-42	-26	25	-25	27	115	1212	90298	1212	73283257
166	270	3928	-44	-25	27	-25	27	115	1213	90396	1213	73283257
153	257	3936	-43	-26	26	-27	25	111	1214	90447	1214	73283279
160	255	3937	-43	-26	27	-27	25	111	1215	90545	1215	73283279
176	268	3907	-42	-29	26	-23	25	119	1216	90596	1216	73283283
166	257	3920	-48	-26	22	-23	25	119	1217	90694	1217	73283283
164	255	3887	-44	-25	26	-27	35	117	1218	90745	1218	73283286
173	249	3904	-45	-25	27	-27	35	117	1219	90843	1219	73283288
173	268	3913	-43	-27	25	-25	25	115	1220	90894	1220	73283288
172	261	3922	-46	-28	27	-25	25	115	1221	90992	1221	73283303
167	258	3920	-44	-24	27	-26	24	116	1222	91043	1222	73283323
153	249	3902	-46	-25	25	-26	24	116	1223	91141	1223	73283326
169	265	3937	-42	-24	24	-25	21	111	1224	91192	1224	73283337
191	261	3915	-42	-23	25	-25	21	111	1225	91290	1225	73283337
155	262	3931	-44	-22	27	-27	29	117	1226	91341	1226	73283340
175	244	3920	-45	-27	30	-27	29	117	1227	91439	1227	73283341
174	254	3911	-45	-27	27	-25	23	113	1228	91490	1228	73283343
160	257	3912	-44	-24	26	-25	23	113	1229	91588	1229	73283344
169	259	3932	-43	-24	25	-30	28	112	1230	91639	1230	73283345
155	264	3915	-45	-25	29	-30	28	112	1231	91737	1231	73283349
166	261	3914	-44	-27	27	-28	26	114	1232	91788	1232	73283349
169	252	3912	-46	-25	28	-28	26	114	1233	91886	1233	73283353
155	263	3912	-40	-25	26	-25	25	115	1234	91937	1234	73283386
167	262	3918	-41	-25	24	-25	25	115	1235	92036	1235	73283386
165	272	3914	-43	-26	25	-23	19	115	1236	92086	1236	73283389
175	276	3941	-46	-24	25	-23	19	115	1237	92184	1237	73283390
176	259	3922	-42	-25	26	-28	24	108	1238	92235	1238	73283392
166	263	3946	-44	-22	26	-28	24	108	1239	92334	1239	73283393
165	272	3919	-45	-24	25	-24	28	112	1240	92385	1240	73283394
159	247	3912	-44	-27	25	-24	28	112	1241	92483	1241	73283398
162	274	3925	-42	-27	25	-28	24	116	1242	92534	1242	73283398
154	255	3909	-41	-25	27	-28	24	116	1243	92632	1243	73283433
165	250	3903	-44	-25	27	-19	25	111	1244	92683	1244	73283445
158	277	3923	-45	-24	23	-19	25	111	1245	92782	1245	73283447
164	264	3914	-44	-26	25	-26	24	112	1246	92833	1246	73283447
157	265	3907	-43	-25	26	-26	24	112	1247	92931	1247	73283449
150	264	3898	-41	-22	25	-33	25	109	1248	92982	1248	73283450
153	250	3923	-44	-21	26	-33	25	109	1249	93080	1249	73283450
162	267	3919	-42	-24	26	-30	26	110	1250	93131	1250	73283450
157	262	3921	-47	-26	26	-30	26	110	1251	93229	1251	73283450
170	267	3913	-42	-28	27	-25	23	111	1252	93280	1252	73283451
163	268	3922	-41	-24	28	-25	23	111	1253	93378	1253	73283473
171	267	3927	-42	-27	23	-26	20	118	1254	93429	1254	73283473
152	263	3912	-43	-22	24	-26	20	118	1255	93528	1255	73283476
157	258	3901	-44	-25	27	-26	22	112	1256	93578	1256	73283479
157	248	3913	-45	-24	24	-26	22	112	1257	93676	1257	73283479
161	261	3930	-44	-25	25	-29	21	111	1258	93727	1258	73283498
165	260	3938	-44	-24	27	-29	21	111	1259	93825	1259	73283533
161	261	3946	-40	-24	24	-32	22	116	1260	93876	1260	73283536
170	263	3920	-44	-24	24	-32	22	116	1261	93974	1261	73283536
184	259	3929	-45	-26	26	-33	23	109	1262	94025	1262	73283536
173	268	3921	-46	-27	23	-33	23	109	1263	94123	1263	73283537
168	253	3907	-43	-26	25	-24	26	110	1264	94174	1264	73283539
173	251	3920	-43	-27	27	-24	26	110	1265	94272	1265	73283540
185	264	3931	-41	-26	26	-27	23	113	1266	94323	1266	73283541
164	268	3909	-43	-27	27	-27	23	113	1267	94421	1267	73283544
151	258	3931	-43	-25	28	-30	26	110	1268	94472	1268	73283548
187	245	3942	-46	-22	27	-30	26	110	1269	94570	1269	73283549
165	257	3948	-44	-21	25	-25	21	111	1270	94621	1270	73283550
159	266	3913	-48	-25	27	-25	21	111	1271	94719	1271	73283553
168	255	3894	-44	-25	25	-21	31	109	1272	94770	1272	73283553
150	258	3931	-44	-26	25	-21	31	109	1273	94868	1273	73283587
164	255	3903	-44	-24	26	-28	24	108	1274	94919	1274	73283590
188	253	3925	-41	-24	25	-28	24	108	1275	95017	1275	73283590
162	265	3915	-44	-23	24	-23	17	113	1276	95068	1276	73283590
161	255	3925	-43	-25	27	-23	17	113	1277	95166	1277	73283593
163	245	3921	-41	-25	27	-25	25	109	1278	95217	1278	73283597
166	257	3923	-42	-26	25	-25	25	109	1279	95315	1279	73283597
157	259	3913	-41	-27	27	-25	25	117	1280	95366	1280	73283600
170	254	3915	-44	-24	27	-25	25	117	1281	95464	1281	73283601
177	256	3933	-44	-26	27	-23	29	103	1282	95515	1282	73283603
167	268	3936	-46	-24	27	-23	29	103	1283	95613	1283	73283623
158	260	3921	-45	-22	26	-25	29	113	1284	95664	1284	73283623
173	251	3930	-45	-23	26	-25	29	113	1285	95762	1285	73283625
173	262	3931	-42	-27	26	-20	24	114	1286	95813	1286	73283626
152	265	3931	-44	-23	29	-20	24	114	1287	95912	1287	73283628
161	277	3910	-44	-25	25	-26	24	106	1288	95963	1288	73283645
151	262	3911	-45	-22	25	-26	24	106	1289	96061	1289	73283645
185	264	3926	-43	-25	27	-28	20	112	1290	96112	1290	73283649
159	259	3927	-44	-24	24	-28	20	112	1291	96210	1291	73283649
165	262	3916	-44	-25	26	-18	28	110	1292	96261	1292	73283651
133	254	3941	-45	-23	27	-18	28	110	1293	96359	1293	73283670
150	248	3891	-42	-24	24	-23	29	113	1294	96410	1294	73283671
162	263	3890	-47	-24	27	-23	29	113	1295	96508	1295	73283674
183	268	3914	-43	-24	25	-26	24	114	1296	96559	1296	73283674
175	264	3897	-46	-23	23	-26	24	114	1297	96657	1297	73283677
168	258	3923	-44	-22	24	-29	25	111	1298	96708	1298	73283695
165	255	3915	-44	-24	28	-29	25	111	1299	96806	1299	73283696
171	273	3932	-42	-24	27	-31	23	113	1300	96857	1300	73283699
162	272	3921	-45	-25	23	-31	23	113	1301	96955	1301	73283699
174	267	3925	-44	-25	27	-25	27	111	1302	97006	1302	73283730
165	268	3923	-44	-24	27	-25	27	111	1303	97104	1303	73283737
154	272	3924	-43	-25	24	-26	20	110	1304	97155	1304	73283739
179	264	3914	-42	-24	27	-26	20	110	1305	97253	1305	73283745
164	263	3906	-41	-27	27	-23	21	117	1306	97304	1306	73283748
164	262	3896	-43	-27	23	-23	21	117	1307	97402	1307	73283755
176	274	3938	-42	-25	25	-29	25	115	1308	97453	1308	73283757
163	261	3936	-45	-24	25	-29	25	115	1309	97551	1309	73283761
170	247	3926	-44	-26	25	-27	23	117	1310	97602	1310	73283764
164	254	3929	-43	-23	29	-27	23	117	1311	97700	1311	73283765
165	270	3928	-42	-25	28	-31	27	113	1312	97751	1312	73283765
167	272	3925	-43	-24	24	-31	27	113	1313	97849	1313	73283766
180	260	3926	-43	-24	27	-27	27	113	1314	97900	1314	73283766
156	271	3930	-44	-23	26	-27	27	113	1315	97998	1315	73283771
169	255	3918	-46	-28	25	-28	28	116	1316	98049	1316	73283771
170	239	3927	-46	-27	26	-28	28	116	1317	98147	1317	73283778
172	263	3934	-43	-26	27	-31	21	111	1318	98198	1318	73283779
159	277	3931	-46	-21	27	-31	21	111	1319	98296	1319	73283783
156	255	3908	-42	-22	23	-26	24	116	1320	98347	1320	73283796
180	262	3920	-45	-20	28	-26	24	116	1321	98445	1321	73283796
168	259	3925	-44	-25	25	-28	22	106	1322	98496	1322	73283803
160	250	3902	-45	-26	26	-28	22	106	1323	98594	1323	73283805
176	284	3913	-44	-26	27	-29	25	109	1324	98645	1324	73283807
168	271	3914	-44	-24	26	-29	25	109	1325	98743	1325	73283821
169	247	3919	-46	-26	25	-30	22	110	1326	98794	1326	73283821
173	259	3940	-47	-24	26	-30	22	110	1327	98892	1327	73283828
155	265	3907	-44	-24	26	-27	23	111	1328	98943	1328	73283829
163	263	3923	-44	-24	24	-27	23	111	1329	99041	1329	73283846
168	262	3907	-42	-23	27	-27	21	113	1330	99092	1330	73283851
161	270	3917	-45	-25	27	-27	21	113	1331	99190	1331	73283851
150	262	3931	-44	-25	27	-24	24	114	1332	99241	1332	73283875
163	268	3893	-46	-28	28	-24	24	114	1333	99339	1333	73283878
167	264	3904	-44	-25	25	-25	27	115	1334	99390	1334	73283879
175	246	3907	-45	-26	25	-25	27	115	1335	99488	1335	73283879
168	259	3910	-42	-25	27	-30	26	108	1336	99539	1336	73283881
171	252	3926	-46	-28	25	-30	26	108	1337	99637	1337	73283883
179	235	3928	-43	-25	22	-24	22	112	1338	99688	1338	73283884
170	247	3932	-45	-22	28	-24	22	112	1339	99786	1339	73283897
160	253	3921	-43	-23	28	-21	19	115	1340	99837	1340	73283897
159	256	3911	-42	-22	24	-21	19	115	1341	99935	1341	73283899
159	254	3925	-43	-24	24	-25	17	113	1342	99986	1342	73283901
170	257	3914	-43	-25	26	-25	17	113	1343	100084	1343	73283901
161	274	3929	-43	-25	24	-23	19	105	1344	100135	1344	73283923
160	269	3923	-45	-27	26	-23	19	105	1345	100233	1345	73283923
176	276	3909	-43	-28	27	-29	23	115	1346	100284	1346	73283926
167	272	3902	-46	-27	26	-29	23	115	1347	100382	1347	73283927
174	254	3923	-45	-24	24	-27	29	111	1348	100433	1348	73283927
176	248	3895	-46	-24	28	-27	29	111	1349	100531	1349	73283947
159	275	3922	-42	-24	27	-26	20	112	1350	100582	1350	73283948
158	264	3921	-44	-26	26	-26	20	112	1351	100680	1351	73283949
161	256	3911	-43	-26	27	-24	26	112	1352	100731	1352	73283951
167	274	3914	-45	-25	24	-24	26	112	1353	100829	1353	73283951
174	259	3911	-44	-23	26	-24	28	112	1354	100880	1354	73283988
167	253	3920	-43	-26	28	-24	28	112	1355	100978	1355	73283996
175	279	3918	-43	-27	27	-22	26	120	1356	101029	1356	73283998
178	277	3913	-42	-23	25	-22	26	120	1357	101127	1357	73283999
167	248	3926	-45	-26	26	-29	23	111	1358	101178	1358	73284002
159	266	3919	-46	-25	28	-29	23	111	1359	101276	1359	73284004
184	247	3926	-42	-25	27	-26	20	108	1360	101327	1360	73284005
161	263	3931	-45	-26	27	-26	20	108	1361	101425	1361	73284005
175	260	3925	-41	-25	27	-28	26	112	1362	101476	1362	73284005
161	259	3940	-43	-26	25	-28	26	112	1363	101574	1363	73284006
166	250	3903	-44	-25	27	-29	19	111	1364	101625	1364	73284023
153	268	3913	-45	-25	28	-29	19	111	1365	101723	1365	73284023
179	253	3907	-42	-26	28	-25	27	117	1366	101774	1366	73284026
170	259	3929	-43	-23	28	-25	27	117	1367	101872	1367	73284026
155	258	3912	-44	-25	26	-34	24	114	1368	101923	1368	73284028
172	255	3893	-42	-26	24	-34	24	114	1369	102022	1369	73284047
174	268	3926	-41	-26	24	-26	20	110	1370	102072	1370	73284047
182	267	3933	-44	-26	28	-26	20	110	1371	102170	1371	73284051
165	264	3931	-42	-24	25	-29	25	113	1372	102221	1372	73284051
151	274	3909	-42	-22	26	-29	25	113	1373	102319	1373	73284053
163	264	3893	-43	-25	27	-31	27	107	1374	102370	1374	73284072
164	260	3918	-44	-26	25	-31	27	107	1375	102468	1375	73284073
175	267	3916	-44	-24	26	-27	23	111	1376	102519	1376	73284077
165	259	3909	-43	-23	26	-27	23	111	1377	102617	1377	73284077
166	248	3905	-45	-26	25	-26	26	112	1378	102668	1378	73284078
168	260	3918	-45	-24	26	-26	26	112	1379	102766	1379	73284096
161	252	3930	-43	-23	28	-20	24	118	1380	102817	1380	73284096
166	252	3921	-43	-25	26	-20	24	118	1381	102915	1381	73284099
161	247	3916	-42	-25	26	-30	26	114	1382	102966	1382	73284101
162	267	3895	-44	-25	29	-30	26	114	1383	103064	1383	73284103
172	249	3912	-42	-25	25	-27	29	115	1384	103115	1384	73284123
162	272	3923	-43	-24	25	-27	29	115	1385	103213	1385	73284124
186	261	3926	-42	-25	27	-26	24	114	1386	103264	1386	73284124
158	262	3932	-45	-26	23	-26	24	114	1387	103362	1387	73284125
173	269	3923	-42	-25	25	-28	26	112	1388	103413	1388	73284146
174	262	3914	-45	-24	25	-28	26	112	1389	103511	1389	73284146
170	258	3923	-42	-23	25	-27	21	117	1390	103562	1390	73284148
165	265	3928	-44	-24	23	-27	21	117	1391	103660	1391	73284149
165	254	3941	-43	-25	28	-25	21	113	1392	103711	1392	73284150
168	269	3905	-45	-23	26	-25	21	113	1393	103809	1393	73284157
158	261	3934	-44	-27	24	-24	22	118	1394	103860	1394	73284157
169	249	3917	-44	-25	26	-24	22	118	1395	103958	1395	73284171
172	261	3915	-44	-24	27	-26	26	118	1396	104009	1396	73284172
157	264	3905	-44	-24	24	-26	26	118	1397	104107	1397	73284172
176	277	3924	-43	-23	26	-24	22	110	1398	104158	1398	73284182
178	278	3882	-45	-27	27	-24	22	110	1399	104256	1399	73284182
170	263	3915	-43	-24	23	-27	23	117	1400	104307	1400	73284196
160	268	3908	-44	-25	24	-27	23	117	1401	104405	1401	73284197
170	268	3915	-42	-27	26	-28	26	114	1402	104456	1402	73284197
162	264	3932	-43	-30	25	-28	26	114	1403	104555	1403	73284207
175	261	3929	-45	-26	27	-24	24	110	1404	104606	1404	73284207
172	261	3913	-46	-24	28	-24	24	110	1405	104704	1405	73284221
170	254	3923	-43	-24	28	-25	23	119	1406	104755	1406	73284222
173	256	3915	-43	-25	25	-25	23	119	1407	104853	1407	73284222
167	258	3932	-43	-26	28	-26	26	112	1408	104904	1408	73284233
180	265	3900	-43	-26	25	-26	26	112	1409	105002	1409	73284233
148	253	3923	-44	-24	25	-28	22	110	1410	105053	1410	73284234
176	251	3928	-44	-23	28	-28	22	110	1411	105151	1411	73284246
161	265	3922	-46	-24	24	-24	26	108	1412	105202	1412	73284250
168	258	3922	-43	-24	25	-24	26	108	1413	105300	1413	73284257
166	257	3917	-42	-25	26	-30	18	108	1414	105351	1414	73284257
159	253	3930	-44	-26	24	-30	18	108	1415	105449	1415	73284260
174	265	3936	-43	-25	25	-27	27	111	1416	105500	1416	73284271
166	258	3925	-45	-21	27	-27	27	111	1417	105598	1417	73284271
170	273	3935	-45	-25	26	-25	27	109	1418	105649	1418	73284281
166	263	3927	-46	-25	27	-25	27	109	1419	105747	1419	73284281
168	265	3914	-44	-29	27	-24	20	116	1420	105798	1420	73284296
174	266	3928	-43	-26	26	-24	20	116	1421	105896	1421	73284296
164	252	3929	-44	-24	25	-26	24	108	1422	105947	1422	73284298
170	263	3931	-45	-22	28	-26	24	108	1423	106045	1423	73284306
165	269	3924	-44	-27	29	-24	28	110	1424	106096	1424	73284307
160	275	3924	-44	-27	25	-24	28	110	1425	106194	1425	73284321
160	268	3924	-45	-27	27	-29	19	113	1426	106245	1426	73284321
164	245	3910	-46	-26	25	-29	19	113	1427	106343	1427	73284323
165	255	3925	-43	-26	24	-25	23	113	1428	106394	1428	73284331
158	256	3908	-46	-26	27	-25	23	113	1429	106492	1429	73284331
171	259	3928	-43	-25	27	-27	25	111	1430	106543	1430	73284346
152	263	3912	-45	-24	23	-27	25	111	1431	106641	1431	73284346
169	256	3919	-41	-24	26	-26	28	112	1432	106692	1432	73284348
170	261	3925	-44	-25	25	-26	28	112	1433	106790	1433	73284355
175	256	3933	-43	-26	24	-31	25	107	1434	106841	1434	73284355
152	269	3894	-44	-26	26	-31	25	107	1435	106939	1435	73284373
162	261	3912	-42	-24	27	-26	20	120	1436	106990	1436	73284379
155	266	3936	-42	-24	26	-26	20	120	1437	107088	1437	73284379
162	270	3946	-44	-25	28	-28	28	108	1438	107139	1438	73284380
152	252	3926	-44	-27	31	-28	28	108	1439	107237	1439	73284380
176	250	3931	-39	-25	26	-25	25	113	1440	107288	1440	73284397
169	272	3904	-41	-24	24	-25	25	113	1441	107386	1441	73284397
152	264	3912	-41	-27	28	-23	27	117	1442	107437	1442	73284399
159	266	3906	-43	-26	25	-23	27	117	1443	107535	1443	73284404
166	256	3909	-43	-24	23	-27	27	113	1444	107586	1444	73284405
141	254	3929	-45	-24	27	-27	27	113	1445	107684	1445	73284421
153	277	3925	-42	-25	27	-25	23	113	1446	107735	1446	73284421
174	254	3910	-44	-25	24	-25	23	113	1447	107833	1447	73284424
163	263	3900	-42	-26	25	-28	28	112	1448	107884	1448	73284424
176	259	3925	-43	-25	26	-28	28	112	1449	107982	1449	73284430
165	254	3918	-43	-25	24	-29	19	113	1450	108033	1450	73284447
155	255	3913	-43	-23	28	-29	19	113	1451	108131	1451	73284447
159	257	3907	-46	-27	28	-26	26	114	1452	108182	1452	73284450
169	255	3903	-44	-24	24	-26	26	114	1453	108280	1453	73284451
161	253	3924	-42	-25	25	-30	30	112	1454	108331	1454	73284454
156	267	3899	-46	-25	25	-30	30	112	1455	108429	1455	73284470
147	242	3919	-42	-24	25	-26	22	116	1456	108480	1456	73284471
159	263	3926	-45	-22	28	-26	22	116	1457	108578	1457	73284474
177	260	3914	-43	-24	26	-26	20	112	1458	108629	1458	73284476
165	267	3939	-44	-24	25	-26	20	112	1459	108727	1459	73284478
165	258	3908	-44	-22	29	-29	21	109	1460	108778	1460	73284523
160	252	3916	-43	-24	30	-29	21	109	1461	108876	1461	73284523
162	270	3911	-42	-26	23	-28	26	114	1462	108927	1462	73284526
170	257	3921	-43	-26	25	-28	26	114	1463	109025	1463	73284526
185	260	3929	-47	-25	26	-28	24	106	1464	109076	1464	73284528
166	272	3932	-44	-24	24	-28	24	106	1465	109174	1465	73284529
162	257	3913	-44	-26	26	-32	28	110	1466	109225	1466	73284530
146	259	3908	-43	-26	27	-32	28	110	1467	109323	1467	73284547
157	255	3919	-46	-25	25	-27	25	115	1468	109374	1468	73284547
160	257	3926	-46	-26	26	-27	25	115	1469	109472	1469	73284549
172	259	3914	-43	-26	28	-25	25	111	1470	109523	1470	73284550
191	269	3916	-44	-23	24	-25	25	111	1471	109621	1471	73284551
176	254	3913	-46	-26	26	-28	24	112	1472	109672	1472	73284554
157	276	3906	-45	-24	28	-28	24	112	1473	109770	1473	73284555
173	278	3937	-42	-25	24	-24	26	106	1474	109821	1474	73284557
168	254	3913	-47	-25	26	-24	26	106	1475	109919	1475	73284571
146	257	3905	-45	-25	29	-29	25	115	1476	109970	1476	73284571
161	260	3937	-46	-25	25	-29	25	115	1477	110068	1477	73284574
163	266	3907	-45	-23	24	-28	30	112	1478	110119	1478	73284574
160	256	3920	-42	-26	29	-28	30	112	1479	110217	1479	73284596
162	263	3910	-41	-28	27	-25	19	111	1480	110268	1480	73284596
149	260	3911	-42	-26	27	-25	19	111	1481	110366	1481	73284598
171	255	3917	-43	-28	27	-28	20	116	1482	110417	1482	73284599
157	256	3932	-44	-25	26	-28	20	116	1483	110515	1483	73284599
166	254	3926	-43	-24	24	-28	22	110	1484	110566	1484	73284621
169	250	3919	-42	-26	28	-28	22	110	1485	110664	1485	73284621
167	259	3920	-42	-25	26	-26	18	110	1486	110715	1486	73284623
177	275	3927	-43	-27	25	-26	18	110	1487	110813	1487	73284624
165	281	3917	-42	-27	27	-22	28	112	1488	110864	1488	73284625
165	269	3913	-43	-26	25	-22	28	112	1489	110962	1489	73284645
157	261	3927	-43	-23	26	-25	21	113	1490	111013	1490	73284646
155	271	3914	-44	-22	25	-25	21	113	1491	111111	1491	73284648
165	254	3932	-43	-26	27	-24	20	118	1492	111162	1492	73284650
153	249	3936	-44	-24	25	-24	20	118	1493	111260	1493	73284650
167	272	3921	-41	-25	27	-25	21	111	1494	111311	1494	73284670
176	253	3908	-44	-25	27	-25	21	111	1495	111409	1495	73284671
175	257	3930	-44	-23	25	-26	22	114	1496	111460	1496	73284673
180	262	3906	-44	-22	28	-26	22	114	1497	111558	1497	73284674
168	248	3899	-41	-22	29	-30	26	112	1498	111609	1498	73284675
158	255	3916	-42	-23	24	-30	26	112	1499	111707	1499	73284696
166	258	3940	-40	-24	24	-29	21	111	1500	111758	1500	73284696
174	251	3927	-43	-25	27	-29	21	111	1501	111856	1501	73284698
160	260	3908	-41	-23	25	-23	23	111	1502	111907	1502	73284700
164	265	3924	-44	-25	26	-23	23	111	1503	112005	1503	73284700
166	251	3918	-43	-24	28	-23	25	109	1504	112056	1504	73284720
171	268	3918	-44	-25	27	-23	25	109	1505	112154	1505	73284721
157	256	3929	-41	-25	26	-23	25	109	1506	112205	1506	73284724
167	255	3917	-47	-24	25	-23	25	109	1507	112303	1507	73284724
158	273	3934	-44	-24	27	-28	22	112	1508	112354	1508	73284727
167	263	3918	-43	-23	28	-28	22	112	1509	112453	1509	73284745
158	252	3932	-41	-24	28	-27	23	109	1510	112503	1510	73284746
169	256	3930	-41	-27	25	-27	23	109	1511	112601	1511	73284749
157	272	3913	-44	-28	24	-23	23	115	1512	112652	1512	73284750
170	247	3930	-45	-27	26	-23	23	115	1513	112750	1513	73284752
164	256	3927	-42	-24	28	-26	20	112	1514	112801	1514	73284770
176	262	3918	-44	-22	24	-26	20	112	1515	112899	1515	73284771
177	277	3914	-43	-25	25	-32	28	112	1516	112950	1516	73284778
169	264	3922	-44	-24	22	-32	28	112	1517	113048	1517	73284778
159	258	3913	-41	-25	25	-24	24	116	1518	113099	1518	73284778
158	274	3918	-43	-23	28	-24	24	116	1519	113197	1519	73284797
164	262	3908	-42	-24	27	-28	24	116	1520	113248	1520	73284797
166	259	3925	-42	-20	26	-28	24	116	1521	113346	1521	73284801
185	254	3904	-41	-25	27	-26	20	114	1522	113397	1522	73284802
163	269	3943	-43	-26	27	-26	20	114	1523	113495	1523	73284807
152	265	3918	-44	-24	26	-26	24	114	1524	113546	1524	73284822
159	266	3918	-46	-26	26	-26	24	114	1525	113644	1525	73284823
172	251	3920	-44	-25	25	-24	22	112	1526	113695	1526	73284826
171	262	3927	-46	-24	26	-24	22	112	1527	113793	1527	73284827
169	257	3907	-42	-28	26	-20	26	112	1528	113844	1528	73284828
174	254	3914	-42	-27	25	-20	26	112	1529	113943	1529	73284831
175	269	3931	-43	-26	24	-30	28	110	1530	113993	1530	73284831
166	258	3922	-44	-24	26	-30	28	110	1531	114091	1531	73284846
154	260	3922	-44	-25	30	-25	23	119	1532	114142	1532	73284846
153	268	3919	-46	-26	27	-25	23	119	1533	114240	1533	73284854
155	274	3913	-42	-24	25	-25	25	111	1534	114291	1534	73284854
176	267	3896	-46	-22	23	-25	25	111	1535	114389	1535	73284855
147	263	3894	-42	-23	23	-29	21	117	1536	114440	1536	73284872
174	260	3924	-42	-22	27	-29	21	117	1537	114538	1537	73284872
161	261	3920	-43	-23	29	-27	27	111	1538	114589	1538	73284879
167	268	3918	-46	-26	28	-27	27	111	1539	114687	1539	73284880
172	238	3938	-46	-26	23	-26	24	112	1540	114738	1540	73284882
165	279	3899	-48	-24	27	-26	24	112	1541	114836	1541	73284896
183	257	3922	-44	-24	26	-18	20	112	1542	114887	1542	73284898
160	265	3929	-42	-24	24	-18	20	112	1543	114985	1543	73284925
162	270	3909	-41	-22	28	-27	27	113	1544	115037	1544	73284931
164	259	3931	-46	-24	26	-27	27	113	1545	115135	1545	73284932
165	283	3938	-43	-26	24	-27	19	113	1546	115186	1546	73284932
142	260	3904	-45	-22	24	-27	19	113	1547	115284	1547	73284932
181	260	3910	-45	-27	26	-24	28	116	1548	115335	1548	73284933
156	262	3895	-46	-25	25	-24	28	116	1549	115433	1549	73284933
170	257	3930	-44	-28	28	-24	24	112	1550	115484	1550	73284933
158	264	3920	-44	-26	27	-24	24	112	1551	115582	1551	73284945
160	269	3955	-42	-26	24	-26	26	116	1552	115633	1552	73284946
174	265	3923	-44	-25	27	-26	26	116	1553	115731	1553	73284953
147	251	3927	-44	-25	26	-28	28	116	1554	115782	1554	73284953
168	260	3913	-42	-24	23	-28	28	116	1555	115880	1555	73284957
149	255	3919	-42	-25	24	-21	23	115	1556	115931	1556	73284971
163	252	3932	-42	-23	29	-21	23	115	1557	116029	1557	73284971
170	269	3931	-41	-25	25	-31	23	111	1558	116080	1558	73284978
176	250	3928	-43	-26	24	-31	23	111	1559	116178	1559	73284978
157	265	3946	-45	-25	27	-25	25	111	1560	116229	1560	73284980
161	247	3904	-45	-24	26	-25	25	111	1561	116327	1561	73284995
170	259	3941	-42	-24	26	-29	23	115	1562	116378	1562	73284996
156	263	3941	-41	-26	27	-29	23	115	1563	116476	1563	73285003
161	254	3925	-43	-26	28	-27	19	115	1564	116527	1564	73285003
153	278	3936	-44	-25	25	-27	19	115	1565	116625	1565	73285020
162	273	3948	-45	-26	27	-24	22	112	1566	116676	1566	73285021
172	252	3936	-47	-27	26	-24	22	112	1567	116774	1567	73285023
166	260	3922	-43	-28	24	-25	25	111	1568	116825	1568	73285028
164	256	3925	-44	-25	26	-25	25	111	1569	116923	1569	73285028
162	262	3951	-46	-26	26	-29	23	109	1570	116974	1570	73285046
168	268	3913	-44	-24	25	-29	23	109	1571	117072	1571	73285046
166	258	3929	-43	-23	27	-32	26	106	1572	117123	1572	73285048
173	277	3923	-45	-22	26	-32	26	106	1573	117221	1573	73285050
166	262	3910	-44	-25	27	-26	24	112	1574	117272	1574	73285051
168	279	3905	-45	-25	27	-26	24	112	1575	117370	1575	73285070
165	271	3898	-41	-23	27	-27	21	115	1576	117421	1576	73285070
160	262	3895	-43	-26	25	-27	21	115	1577	117519	1577	73285073
172	268	3913	-44	-26	25	-30	28	110	1578	117570	1578	73285076
158	256	3926	-43	-27	27	-30	28	110	1579	117668	1579	73285077
167	275	3933	-44	-23	25	-27	23	111	1580	117719	1580	73285095
165	269	3921	-42	-26	28	-27	23	111	1581	117817	1581	73285096
184	261	3907	-44	-28	28	-30	22	110	1582	117868	1582	73285098
161	260	3901	-44	-25	25	-30	22	110	1583	117966	1583	73285100
179	253	3905	-43	-23	29	-32	22	110	1584	118017	1584	73285101
157	259	3920	-46	-23	28	-32	22	110	1585	118115	1585	73285120
164	270	3914	-44	-23	25	-23	25	111	1586	118166	1586	73285121
158	254	3912	-44	-24	26	-23	25	111	1587	118264	1587	73285123
163	260	3905	-43	-25	26	-24	24	108	1588	118315	1588	73285126
158	262	3938	-41	-25	24	-24	24	108	1589	118413	1589	73285126
164	244	3926	-41	-28	26	-24	28	104	1590	118464	1590	73285154
171	273	3945	-44	-27	27	-24	28	104	1591	118562	1591	73285154
176	259	3929	-43	-25	25	-24	34	110	1592	118613	1592	73285156
160	258	3932	-42	-25	26	-24	34	110	1593	118711	1593	73285172
165	243	3910	-43	-26	27	-26	28	116	1594	118762	1594	73285172
169	255	3924	-43	-24	26	-26	28	116	1595	118860	1595	73285176
156	263	3908	-43	-26	23	-28	16	110	1596	118911	1596	73285177
167	262	3917	-43	-23	25	-28	16	110	1597	119009	1597	73285179
152	257	3930	-41	-27	24	-26	20	112	1598	119060	1598	73285179
168	271	3923	-44	-24	24	-26	20	112	1599	119158	1599	73285183
149	261	3924	-42	-25	26	-24	22	112	1600	119209	1600	73285196
151	258	3923	-43	-25	26	-24	22	112	1601	119307	1601	73285197
176	251	3933	-43	-25	26	-23	23	113	1602	119358	1602	73285200
167	261	3910	-44	-25	26	-23	23	113	1603	119456	1603	73285200
178	271	3930	-44	-27	26	-25	29	111	1604	119507	1604	73285203
170	267	3911	-44	-24	24	-25	29	111	1605	119605	1605	73285225
176	261	3916	-44	-24	26	-25	15	113	1606	119656	1606	73285227
185	260	3908	-42	-23	27	-25	15	113	1607	119754	1607	73285229
173	266	3937	-41	-25	24	-27	23	113	1608	119805	1608	73285229
165	265	3918	-43	-25	27	-27	23	113	1609	119903	1609	73285231
154	260	3918	-42	-23	27	-27	23	105	1610	119954	1610	73285247
161	264	3909	-44	-25	24	-27	23	105	1611	120052	1611	73285247
159	255	3889	-42	-23	26	-23	21	115	1612	120103	1612	73285250
152	265	3922	-44	-24	29	-23	21	115	1613	120201	1613	73285251
147	259	3923	-42	-26	25	-27	25	111	1614	120252	1614	73285253
164	270	3917	-45	-24	28	-27	25	111	1615	120350	1615	73285272
159	260	3928	-45	-24	30	-26	30	114	1616	120401	1616	73285272
162	257	3918	-43	-25	26	-26	30	114	1617	120499	1617	73285276
176	239	3936	-43	-27	26	-27	21	113	1618	120550	1618	73285276
172	274	3933	-44	-24	26	-27	21	113	1619	120648	1619	73285278
161	268	3904	-44	-26	25	-25	27	105	1620	120699	1620	73285296
175	258	3924	-45	-23	25	-25	27	105	1621	120797	1621	73285296
163	246	3935	-42	-23	27	-24	24	114	1622	120848	1622	73285299
183	256	3925	-44	-26	25	-24	24	114	1623	120946	1623	73285300
168	260	3909	-41	-26	25	-26	30	108	1624	120997	1624	73285321
163	264	3943	-41	-27	28	-26	30	108	1625	121095	1625	73285328
187	258	3910	-42	-26	26	-27	23	113	1626	121146	1626	73285329
163	266	3915	-47	-26	24	-27	23	113	1627	121244	1627	73285329
161	245	3913	-45	-24	28	-26	26	114	1628	121295	1628	73285329
165	255	3932	-44	-24	24	-26	26	114	1629	121393	1629	73285332
180	258	3937	-45	-26	23	-28	22	112	1630	121444	1630	73285332
168	257	3926	-44	-25	26	-28	22	112	1631	121542	1631	73285346
163	259	3920	-42	-25	25	-27	23	113	1632	121593	1632	73285347
172	257	3915	-44	-23	24	-27	23	113	1633	121691	1633	73285347
161	254	3913	-41	-25	27	-26	26	114	1634	121742	1634	73285357
163	250	3913	-43	-26	25	-26	26	114	1635	121840	1635	73285358
158	251	3896	-45	-25	24	-30	20	116	1636	121891	1636	73285371
155	262	3895	-45	-26	27	-30	20	116	1637	121989	1637	73285372
177	258	3911	-44	-28	27	-24	28	116	1638	122040	1638	73285373
155	275	3922	-43	-25	24	-24	28	116	1639	122138	1639	73285382
177	257	3928	-41	-26	26	-27	27	113	1640	122189	1640	73285382
171	250	3906	-44	-27	26	-27	27	113	1641	122287	1641	73285396
160	256	3922	-41	-27	25	-25	23	107	1642	122338	1642	73285397
166	270	3929	-44	-27	26	-25	23	107	1643	122436	1643	73285397
169	264	3932	-42	-24	29	-23	31	111	1644	122487	1644	73285407
170	254	3936	-45	-22	24	-23	31	111	1645	122585	1645	73285408
164	269	3930	-44	-27	25	-32	24	114	1646	122636	1646	73285409
159	261	3905	-44	-25	29	-32	24	114	1647	122734	1647	73285421
170	258	3916	-42	-26	24	-26	22	112	1648	122785	1648	73285421
173	258	3919	-46	-26	24	-26	22	112	1649	122883	1649	73285431
156	272	3899	-43	-27	27	-25	25	111	1650	122934	1650	73285431
160	260	3923	-43	-28	24	-25	25	111	1651	123032	1651	73285435
159	258	3922	-42	-27	26	-25	25	113	1652	123083	1652	73285446
160	268	3932	-43	-27	29	-25	25	113	1653	123181	1653	73285446
158	250	3909	-43	-27	26	-26	22	108	1654	123232	1654	73285456
170	265	3921	-44	-28	26	-26	22	108	1655	123330	1655	73285456
170	250	3921	-43	-24	28	-29	25	113	1656	123381	1656	73285471
159	249	3914	-45	-24	27	-29	25	113	1657	123479	1657	73285471
165	261	3910	-41	-28	23	-23	25	115	1658	123530	1658	73285473
170	250	3893	-43	-22	27	-23	25	115	1659	123628	1659	73285481
180	249	3907	-44	-24	25	-25	25	107	1660	123679	1660	73285481
176	255	3928	-47	-25	26	-25	25	107	1661	123777	1661	73285496
168	266	3932	-46	-27	28	-27	19	115	1662	123828	1662	73285496
160	262	3916	-44	-26	26	-27	19	115	1663	123926	1663	73285498
150	260	3918	-42	-27	25	-30	20	110	1664	123977	1664	73285506
164	268	3917	-43	-26	26	-30	20	110	1665	124075	1665	73285506
157	255	3920	-40	-28	27	-28	26	116	1666	124126	1666	73285521
152	247	3929	-44	-24	27	-28	26	116	1667	124224	1667	73285521
152	267	3926	-43	-25	30	-23	23	115	1668	124275	1668	73285523
176	255	3910	-43	-25	27	-23	23	115	1669	124373	1669	73285530
187	258	3933	-43	-25	24	-34	24	112	1670	124424	1670	73285530
170	271	3911	-42	-22	27	-34	24	112	1671	124522	1671	73285546
165	269	3900	-41	-25	28	-19	23	115	1672	124573	1672	73285546
177	263	3918	-42	-25	26	-19	23	115	1673	124671	1673	73285548
174	269	3921	-42	-25	27	-25	27	113	1674	124722	1674	73285554
163	269	3908	-43	-25	27	-25	27	113	1675	124820	1675	73285555
155	262	3911	-44	-27	25	-31	23	117	1676	124871	1676	73285573
173	266	3926	-46	-23	25	-31	23	117	1677	124969	1677	73285573
179	259	3924	-43	-27	28	-24	26	116	1678	125020	1678	73285577
172	251	3905	-45	-25	25	-24	26	116	1679	125118	1679	73285579
162	265	3929	-42	-26	23	-29	29	107	1680	125169	1680	73285580
147	253	3912	-43	-24	28	-29	29	107	1681	125267	1681	73285598
186	255	3902	-46	-25	26	-27	19	117	1682	125318	1682	73285598
164	274	3938	-45	-25	26	-27	19	117	1683	125416	1683	73285601
186	251	3920	-44	-27	30	-23	25	113	1684	125467	1684	73285602
164	248	3914	-44	-24	28	-23	25	113	1685	125565	1685	73285602
159	249	3888	-41	-26	25	-29	19	113	1686	125616	1686	73285619
165	266	3935	-45	-24	28	-29	19	113	1687	125714	1687	73285620
176	244	3919	-44	-26	26	-29	21	107	1688	125765	1688	73285627
166	260	3908	-45	-24	24	-29	21	107	1689	125863	1689	73285627
172	265	3923	-44	-27	28	-28	30	108	1690	125914	1690	73285629
172	245	3909	-46	-26	25	-28	30	108	1691	126012	1691	73285663
166	250	3932	-44	-27	24	-30	22	118	1692	126063	1692	73285663
170	259	3922	-45	-26	26	-30	22	118	1693	126161	1693	73285667
180	272	3915	-44	-23	24	-24	24	112	1694	126212	1694	73285667
161	260	3921	-44	-23	25	-24	24	112	1695	126310	1695	73285669
168	254	3906	-41	-23	24	-29	27	115	1696	126361	1696	73285671
161	263	3928	-44	-25	23	-29	27	115	1697	126459	1697	73285671
146	262	3916	-42	-22	23	-26	20	114	1698	126510	1698	73285674
167	254	3910	-41	-23	29	-26	20	114	1699	126608	1699	73285675
162	261	3917	-45	-24	27	-29	21	115	1700	126659	1700	73285688
177	248	3907	-47	-22	25	-29	21	115	1701	126757	1701	73285689
179	262	3923	-45	-24	25	-22	24	112	1702	126808	1702	73285690
156	258	3919	-43	-21	27	-22	24	112	1703	126906	1703	73285726
188	255	3928	-42	-26	24	-24	22	114	1704	126957	1704	73285726
162	265	3928	-43	-25	29	-24	22	114	1705	127055	1705	73285728
172	266	3931	-43	-27	28	-26	24	116	1706	127106	1706	73285729
154	266	3912	-43	-26	27	-26	24	116	1707	127204	1707	73285730
181	276	3939	-43	-25	25	-27	27	113	1708	127255	1708	73285733
157	267	3915	-45	-25	28	-27	27	113	1709	127353	1709	73285733
160	268	3931	-43	-25	24	-27	27	111	1710	127404	1710	73285735
168	262	3914	-43	-28	23	-27	27	111	1711	127502	1711	73285737
181	262	3935	-42	-27	26	-30	24	110	1712	127553	1712	73285737
143	260	3901	-43	-26	25	-30	24	110	1713	127651	1713	73285750
187	252	3923	-44	-26	26	-22	22	116	1714	127702	1714	73285751
168	268	3926	-42	-25	30	-22	22	116	1715	127800	1715	73285761
168	260	3911	-43	-22	27	-29	23	109	1716	127851	1716	73285761
170	252	3907	-43	-24	25	-29	23	109	1717	127949	1717	73285802
184	260	3918	-43	-26	27	-25	21	119	1718	128000	1718	73285803
155	254	3935	-44	-24	27	-25	21	119	1719	128098	1719	73285804
163	245	3909	-41	-25	25	-23	27	105	1720	128149	1720	73285807
159	262	3925	-42	-24	24	-23	27	105	1721	128247	1721	73285807
176	270	3929	-43	-24	25	-29	31	111	1722	128298	1722	73285809
167	266	3935	-44	-24	27	-29	31	111	1723	128396	1723	73285811
171	261	3908	-45	-27	28	-29	21	111	1724	128447	1724	73285811
162	262	3904	-43	-26	24	-29	21	111	1725	128545	1725	73285827
160	258	3921	-42	-25	24	-29	27	117	1726	128596	1726	73285827
155	260	3918	-43	-23	25	-29	27	117	1727	128694	1727	73285829
171	269	3907	-41	-26	26	-19	19	109	1728	128745	1728	73285831
164	260	3916	-45	-27	22	-19	19	109	1729	128843	1729	73285831
170	265	3907	-42	-28	28	-24	26	110	1730	128894	1730	73285834
165	266	3911	-43	-23	27	-24	26	110	1731	128992	1731	73285835
161	249	3941	-42	-25	26	-22	20	114	1732	129043	1732	73285850
150	249	3929	-44	-24	26	-22	20	114	1733	129141	1733	73285852
178	261	3892	-43	-25	29	-25	19	111	1734	129192	1734	73285853
167	267	3931	-45	-28	26	-25	19	111	1735	129290	1735	73285859
161	272	3917	-44	-26	26	-27	25	121	1736	129341	1736	73285860
152	253	3920	-44	-24	26	-27	25	121	1737	129439	1737	73285876
173	252	3928	-43	-26	25	-19	21	115	1738	129490	1738	73285877
168	272	3922	-42	-27	25	-19	21	115	1739	129588	1739	73285877
185	258	3913	-43	-27	27	-22	26	110	1740	129639	1740	73285884
155	266	3886	-43	-25	27	-22	26	110	1741	129737	1741	73285885
153	250	3893	-46	-22	26	-25	25	113	1742	129788	1742	73285900
156	271	3920	-46	-25	28	-25	25	113	1743	129886	1743	73285901
189	266	3903	-43	-27	25	-29	27	113	1744	129937	1744	73285903
169	255	3905	-45	-24	25	-29	27	113	1745	130035	1745	73285908
180	253	3919	-43	-24	28	-31	27	111	1746	130086	1746	73285909
174	266	3915	-42	-25	27	-31	27	111	1747	130184	1747	73285927
154	255	3896	-43	-27	23	-29	21	115	1748	130235	1748	73285927
162	268	3900	-44	-26	27	-29	21	115	1749	130333	1749	73285929
178	266	3911	-42	-29	26	-25	23	105	1750	130384	1750	73285934
155	270	3912	-46	-26	24	-25	23	105	1751	130482	1751	73285935
157	254	3914	-44	-26	27	-23	25	111	1752	130533	1752	73285951
169	250	3905	-44	-27	29	-23	25	111	1753	130631	1753	73285951
164	254	3918	-41	-28	24	-24	24	114	1754	130682	1754	73285953
170	256	3920	-43	-28	25	-24	24	114	1755	130780	1755	73285958
172	252	3915	-41	-26	24	-24	24	110	1756	130831	1756	73285959
149	260	3932	-43	-23	22	-24	24	110	1757	130929	1757	73285975
168	252	3936	-42	-26	27	-23	25	111	1758	130980	1758	73285976
162	251	3888	-45	-23	27	-23	25	111	1759	131078	1759	73285978
165	260	3930	-44	-27	23	-24	26	110	1760	131129	1760	73285983
172	260	3931	-44	-25	26	-24	26	110	1761	131227	1761	73285983
172	244	3931	-43	-24	28	-25	25	115	1762	131278	1762	73286000
169	272	3914	-44	-23	23	-25	25	115	1763	131376	1763	73286001
171	255	3917	-41	-25	25	-23	21	115	1764	131427	1764	73286003
166	271	3917	-45	-26	26	-23	21	115	1765	131525	1765	73286004
158	259	3918	-45	-26	23	-26	24	112	1766	131576	1766	73286005
157	245	3935	-43	-25	25	-26	24	112	1767	131674	1767	73286025
161	266	3929	-43	-25	26	-30	24	114	1768	131725	1768	73286033
158	247	3912	-42	-24	25	-30	24	114	1769	131823	1769	73286034
167	252	3932	-44	-23	25	-18	22	112	1770	131874	1770	73286034
155	257	3911	-45	-24	27	-18	22	112	1771	131972	1771	73286034
167	273	3924	-43	-26	24	-26	16	110	1772	132023	1772	73286051
179	267	3931	-43	-26	26	-26	16	110	1773	132121	1773	73286051
170	262	3932	-41	-25	27	-19	23	111	1774	132172	1774	73286054
174	270	3883	-41	-24	26	-19	23	111	1775	132270	1775	73286054
185	276	3923	-41	-26	23	-29	21	109	1776	132321	1776	73286058
179	265	3935	-44	-26	27	-29	21	109	1777	132419	1777	73286075
177	251	3917	-44	-26	27	-26	22	110	1778	132470	1778	73286076
185	265	3912	-42	-28	25	-26	22	110	1779	132568	1779	73286079
163	271	3912	-44	-25	27	-26	28	114	1780	132619	1780	73286079
162	257	3924	-45	-24	27	-26	28	114	1781	132717	1781	73286083
154	260	3931	-42	-25	26	-20	22	114	1782	132768	1782	73286101
169	265	3914	-43	-24	28	-20	22	114	1783	132866	1783	73286101
161	262	3930	-45	-26	25	-27	25	113	1784	132917	1784	73286104
165	264	3919	-44	-25	26	-27	25	113	1785	133015	1785	73286105
169	260	3924	-42	-26	27	-25	29	111	1786	133066	1786	73286107
159	267	3939	-43	-25	26	-25	29	111	1787	133164	1787	73286125
163	258	3936	-44	-25	26	-28	18	114	1788	133215	1788	73286126
165	256	3921	-46	-25	28	-28	18	114	1789	133313	1789	73286129
178	261	3921	-42	-23	26	-23	19	113	1790	133364	1790	73286129
152	261	3914	-44	-26	25	-23	19	113	1791	133462	1791	73286132
163	272	3917	-41	-28	27	-26	22	114	1792	133513	1792	73286151
167	264	3911	-44	-24	27	-26	22	114	1793	133611	1793	73286151
175	265	3928	-44	-26	24	-23	19	123	1794	133662	1794	73286154
167	265	3910	-44	-24	26	-23	19	123	1795	133760	1795	73286155
168	257	3912	-41	-28	26	-24	22	112	1796	133811	1796	73286176
170	267	3924	-45	-24	25	-24	22	112	1797	133909	1797	73286176
165	264	3939	-43	-25	25	-22	26	110	1798	133960	1798	73286178
168	263	3933	-43	-24	27	-22	26	110	1799	134058	1799	73286179
161	273	3919	-43	-25	25	-24	26	116	1800	134109	1800	73286179
153	266	3913	-43	-25	27	-24	26	116	1801	134207	1801	73286200
183	255	3930	-43	-26	28	-28	24	114	1802	134258	1802	73286201
172	261	3916	-44	-29	27	-28	24	114	1803	134356	1803	73286203
167	263	3955	-44	-26	25	-24	22	120	1804	134407	1804	73286204
167	270	3904	-43	-24	27	-24	22	120	1805	134506	1805	73286205
161	260	3920	-42	-26	25	-23	25	113	1806	134556	1806	73286226
155	264	3923	-44	-23	26	-23	25	113	1807	134654	1807	73286226
158	253	3918	-42	-25	27	-32	20	114	1808	134705	1808	73286228
167	277	3923	-41	-27	24	-32	20	114	1809	134803	1809	73286229
166	259	3911	-40	-23	26	-29	25	109	1810	134854	1810	73286229
163	272	3928	-40	-24	27	-29	25	109	1811	134952	1811	73286251
163	252	3938	-43	-24	26	-25	23	109	1812	135003	1812	73286251
162	249	3930	-44	-23	24	-25	23	109	1813	135101	1813	73286253
168	272	3922	-42	-27	27	-24	22	116	1814	135152	1814	73286254
159	268	3912	-46	-25	24	-24	22	116	1815	135250	1815	73286254
165	266	3946	-41	-24	23	-27	27	109	1816	135301	1816	73286278
161	287	3922	-43	-26	24	-27	27	109	1817	135399	1817	73286278
172	262	3943	-42	-28	26	-23	19	113	1818	135450	1818	73286282
172	252	3936	-45	-25	24	-23	19	113	1819	135548	1819	73286282
157	269	3922	-44	-27	26	-28	26	114	1820	135599	1820	73286282
162	276	3909	-44	-29	26	-28	26	114	1821	135697	1821	73286285
170	251	3923	-42	-24	24	-25	27	109	1822	135748	1822	73286286
156	277	3903	-44	-25	29	-25	27	109	1823	135846	1823	73286302
162	272	3910	-42	-25	29	-25	21	117	1824	135897	1824	73286302
170	246	3912	-44	-26	26	-25	21	117	1825	135995	1825	73286304
169	262	3920	-45	-26	26	-21	19	113	1826	136046	1826	73286312
174	256	3945	-45	-25	28	-21	19	113	1827	136144	1827	73286312
157	256	3933	-42	-23	22	-26	20	112	1828	136195	1828	73286326
159	261	3929	-46	-23	24	-26	20	112	1829	136293	1829	73286327
160	256	3921	-43	-26	28	-27	25	115	1830	136344	1830	73286328
159	263	3904	-46	-23	26	-27	25	115	1831	136443	1831	73286360
155	258	3906	-44	-29	26	-29	27	109	1832	136493	1832	73286364
161	264	3907	-43	-26	27	-29	27	109	1833	136591	1833	73286366
166	259	3933	-43	-26	23	-27	25	109	1834	136642	1834	73286384
171	262	3956	-45	-25	25	-27	25	109	1835	136740	1835	73286387
167	260	3928	-43	-27	25	-27	27	113	1836	136791	1836	73286388
165	265	3933	-45	-26	26	-27	27	113	1837	136889	1837	73286389
180	257	3915	-43	-26	23	-29	23	105	1838	136940	1838	73286389
157	272	3914	-46	-23	27	-29	23	105	1839	137038	1839	73286391
158	273	3918	-43	-23	27	-20	22	118	1840	137089	1840	73286393
169	264	3915	-44	-24	25	-20	22	118	1841	137187	1841	73286398
176	259	3939	-44	-25	27	-24	22	114	1842	137238	1842	73286398
163	243	3911	-44	-25	25	-24	22	114	1843	137336	1843	73286402
170	260	3919	-44	-25	22	-21	27	111	1844	137387	1844	73286402
153	256	3914	-43	-26	26	-21	27	111	1845	137485	1845	73286407
169	261	3917	-40	-26	27	-26	22	114	1846	137536	1846	73286407
163	274	3921	-42	-27	27	-26	22	114	1847	137634	1847	73286446
174	262	3938	-43	-25	28	-29	29	113	1848	137685	1848	73286448
168	259	3911	-46	-27	27	-29	29	113	1849	137783	1849	73286450
171	261	3901	-46	-27	23	-25	25	113	1850	137834	1850	73286451
164	253	3923	-45	-27	26	-25	25	113	1851	137933	1851	73286452
165	255	3937	-42	-27	27	-22	26	110	1852	137983	1852	73286454
177	262	3917	-43	-26	24	-22	26	110	1853	138082	1853	73286455
179	268	3923	-42	-24	26	-29	27	109	1854	138133	1854	73286456
166	265	3928	-47	-23	24	-29	27	109	1855	138231	1855	73286472
171	272	3938	-44	-28	25	-26	22	112	1856	138282	1856	73286473
162	272	3915	-44	-23	27	-26	22	112	1857	138380	1857	73286474
176	260	3930	-44	-22	27	-27	25	113	1858	138431	1858	73286475
152	254	3904	-43	-25	28	-27	25	113	1859	138530	1859	73286478
174	258	3921	-42	-27	26	-29	27	111	1860	138580	1860	73286480
157	255	3905	-43	-24	29	-29	27	111	1861	138678	1861	73286481
158	250	3918	-42	-25	27	-27	27	111	1862	138729	1862	73286497
158	268	3938	-44	-24	25	-27	27	111	1863	138827	1863	73286498
180	268	3908	-43	-27	29	-27	21	111	1864	138878	1864	73286499
159	253	3939	-44	-24	26	-27	21	111	1865	138976	1865	73286507
150	278	3937	-45	-27	25	-25	25	115	1866	139027	1866	73286526
183	257	3907	-44	-26	23	-25	25	115	1867	139126	1867	73286529
160	254	3904	-44	-27	25	-25	23	109	1868	139177	1868	73286533
142	258	3896	-43	-27	25	-25	23	109	1869	139275	1869	73286534
167	263	3924	-44	-27	28	-21	27	115	1870	139326	1870	73286534
159	260	3924	-46	-27	27	-21	27	115	1871	139424	1871	73286535
177	274	3929	-43	-26	24	-29	25	111	1872	139475	1872	73286546
161	261	3923	-46	-26	28	-29	25	111	1873	139573	1873	73286546
170	269	3922	-43	-25	25	-27	29	115	1874	139624	1874	73286546
169	280	3925	-44	-26	25	-27	29	115	1875	139722	1875	73286556
175	256	3890	-43	-24	26	-28	30	112	1876	139773	1876	73286556
146	256	3919	-44	-23	27	-28	30	112	1877	139871	1877	73286571
163	260	3915	-43	-24	24	-29	21	123	1878	139922	1878	73286571
170	250	3924	-44	-25	27	-29	21	123	1879	140020	1879	73286573
159	256	3914	-43	-25	26	-25	31	111	1880	140071	1880	73286581
181	252	3904	-44	-25	25	-25	31	111	1881	140169	1881	73286581
173	270	3912	-43	-26	28	-24	22	112	1882	140220	1882	73286596
168	272	3906	-43	-24	29	-24	22	112	1883	140318	1883	73286596
156	276	3901	-45	-25	23	-24	26	114	1884	140369	1884	73286598
177	269	3913	-44	-27	27	-24	26	114	1885	140467	1885	73286606
168	280	3909	-42	-24	27	-27	23	109	1886	140518	1886	73286606
161	240	3919	-44	-26	24	-27	23	109	1887	140616	1887	73286621
164	260	3932	-41	-24	25	-25	19	115	1888	140667	1888	73286625
161	269	3946	-45	-24	25	-25	19	115	1889	140765	1889	73286625
173	264	3916	-41	-27	25	-26	28	110	1890	140816	1890	73286631
171	259	3936	-42	-25	25	-26	28	110	1891	140914	1891	73286653
173	263	3923	-44	-24	28	-22	22	118	1892	140965	1892	73286659
155	286	3923	-42	-25	24	-22	22	118	1893	141063	1893	73286660
167	248	3946	-45	-26	25	-23	23	115	1894	141114	1894	73286660
182	260	3901	-45	-25	27	-23	23	115	1895	141213	1895	73286661
171	261	3910	-43	-24	27	-26	28	106	1896	141264	1896	73286661
163	268	3902	-43	-23	25	-26	28	106	1897	141362	1897	73286671
185	259	3917	-42	-28	26	-23	23	113	1898	141413	1898	73286672
164	259	3934	-44	-24	23	-23	23	113	1899	141511	1899	73286673
167	257	3913	-44	-24	24	-25	23	113	1900	141562	1900	73286676
172	251	3924	-42	-21	26	-25	23	113	1901	141660	1901	73286677
166	257	3940	-41	-26	24	-25	19	113	1902	141711	1902	73286696
166	258	3936	-43	-24	24	-25	19	113	1903	141809	1903	73286696
178	246	3915	-43	-26	28	-27	23	109	1904	141860	1904	73286701
164	253	3920	-43	-25	27	-27	23	109	1905	141958	1905	73286703
174	251	3900	-44	-25	26	-26	24	110	1906	142009	1906	73286704
174	265	3925	-42	-25	29	-26	24	110	1907	142107	1907	73286721
162	255	3933	-43	-25	27	-26	20	108	1908	142158	1908	73286721
159	259	3910	-46	-25	25	-26	20	108	1909	142256	1909	73286724
164	257	3913	-43	-25	27	-28	26	110	1910	142307	1910	73286725
169	251	3906	-42	-26	27	-28	26	110	1911	142405	1911	73286731
149	253	3893	-42	-28	23	-28	24	108	1912	142456	1912	73286746
163	261	3928	-44	-25	26	-28	24	108	1913	142554	1913	73286747
156	260	3919	-42	-26	26	-25	23	111	1914	142605	1914	73286749
174	255	3912	-44	-25	25	-25	23	111	1915	142703	1915	73286750
163	274	3900	-43	-26	26	-27	25	111	1916	142754	1916	73286753
171	255	3925	-43	-26	26	-27	25	111	1917	142852	1917	73286771
176	264	3928	-44	-26	27	-26	22	112	1918	142903	1918	73286776
170	259	3929	-45	-24	25	-26	22	112	1919	143001	1919	73286783
173	268	3932	-42	-25	29	-25	19	107	1920	143052	1920	73286784
164	274	3940	-43	-26	26	-25	19	107	1921	143150	1921	73286784
165	264	3890	-41	-25	26	-32	28	108	1922	143201	1922	73286798
160	253	3905	-47	-25	27	-32	28	108	1923	143299	1923	73286798
156	256	3904	-43	-22	25	-28	26	110	1924	143350	1924	73286809
161	270	3908	-45	-23	25	-28	26	110	1925	143449	1925	73286810
176	265	3910	-42	-26	27	-30	26	110	1926	143500	1926	73286810
150	248	3923	-42	-24	25	-30	26	110	1927	143598	1927	73286823
159	270	3941	-44	-23	25	-20	22	114	1928	143649	1928	73286825
153	246	3913	-42	-22	27	-20	22	114	1929	143747	1929	73286827
150	268	3931	-41	-28	28	-26	26	110	1930	143798	1930	73286827
180	253	3936	-44	-27	27	-26	26	110	1931	143896	1931	73286829
162	247	3925	-42	-26	29	-25	25	111	1932	143947	1932	73286847
145	260	3906	-45	-26	28	-25	25	111	1933	144045	1933	73286847
168	267	3924	-44	-26	25	-27	17	117	1934	144096	1934	73286851
165	244	3900	-43	-23	25	-27	17	117	1935	144195	1935	73286851
175	257	3919	-43	-25	24	-26	30	106	1936	144245	1936	73286872
180	258	3916	-46	-28	24	-26	30	106	1937	144343	1937	73286873
162	256	3928	-43	-24	25	-24	22	112	1938	144394	1938	73286875
173	251	3942	-44	-24	27	-24	22	112	1939	144492	1939	73286876
182	259	3941	-44	-25	25	-26	26	116	1940	144543	1940	73286876
160	260	3933	-42	-25	27	-26	26	116	1941	144641	1941	73286896
161	252	3949	-43	-23	28	-22	24	116	1942	144692	1942	73286896
173	256	3933	-47	-24	22	-22	24	116	1943	144790	1943	73286898
178	249	3936	-42	-24	26	-23	21	115	1944	144841	1944	73286900
168	249	3904	-46	-25	26	-23	21	115	1945	144939	1945	73286900
170	268	3918	-45	-26	24	-25	25	107	1946	144990	1946	73286923
171	259	3921	-45	-24	27	-25	25	107	1947	145088	1947	73286926
181	256	3896	-44	-25	28	-26	22	118	1948	145139	1948	73286926
167	264	3915	-45	-24	23	-26	22	118	1949	145237	1949	73286927
172	249	3918	-43	-27	27	-26	22	116	1950	145288	1950	73286927
183	263	3925	-41	-25	26	-26	22	116	1951	145387	1951	73286945
158	282	3933	-43	-26	26	-24	20	116	1952	145437	1952	73286947
167	247	3918	-45	-22	24	-24	20	116	1953	145535	1953	73286948
164	263	3938	-41	-26	28	-28	22	114	1954	145586	1954	73286950
159	265	3928	-44	-27	26	-28	22	114	1955	145684	1955	73286950
164	255	3923	-41	-25	25	-27	23	113	1956	145735	1956	73286970
172	273	3918	-44	-24	28	-27	23	113	1957	145833	1957	73286971
155	269	3913	-44	-24	26	-29	23	115	1958	145884	1958	73286973
160	257	3936	-43	-24	25	-29	23	115	1959	145982	1959	73286974
180	261	3918	-44	-24	27	-26	28	110	1960	146033	1960	73286975
172	243	3916	-42	-25	26	-26	28	110	1961	146131	1961	73286995
163	269	3923	-41	-27	25	-22	22	110	1962	146182	1962	73286996
163	254	3943	-45	-26	26	-22	22	110	1963	146280	1963	73286998
157	267	3922	-41	-25	25	-25	17	113	1964	146331	1964	73287000
162	260	3931	-44	-24	26	-25	17	113	1965	146429	1965	73287000
161	260	3911	-44	-26	27	-22	24	112	1966	146480	1966	73287021
172	244	3919	-44	-24	26	-22	24	112	1967	146578	1967	73287021
171	260	3900	-42	-26	26	-24	24	114	1968	146629	1968	73287025
146	248	3912	-44	-24	26	-24	24	114	1969	146727	1969	73287026
162	259	3924	-42	-25	26	-28	22	112	1970	146778	1970	73287027
181	264	3940	-43	-26	24	-28	22	112	1971	146876	1971	73287046
175	254	3936	-44	-27	25	-25	21	109	1972	146927	1972	73287051
167	267	3914	-43	-26	29	-25	21	109	1973	147025	1973	73287075
163	261	3933	-40	-24	23	-27	19	117	1974	147076	1974	73287076
170	261	3912	-43	-25	24	-27	19	117	1975	147174	1975	73287077
157	260	3904	-42	-25	28	-26	26	112	1976	147225	1976	73287078
157	258	3923	-44	-26	23	-26	26	112	1977	147323	1977	73287078
150	264	3907	-44	-25	25	-27	25	115	1978	147374	1978	73287082
169	252	3913	-45	-24	26	-27	25	115	1979	147472	1979	73287083
154	260	3925	-43	-27	25	-27	27	109	1980	147523	1980	73287084
152	274	3923	-43	-25	25	-27	27	109	1981	147621	1981	73287097
169	256	3917	-42	-24	28	-25	23	111	1982	147672	1982	73287097
187	254	3901	-43	-26	24	-25	23	111	1983	147770	1983	73287100
161	250	3922	-42	-25	24	-27	13	109	1984	147821	1984	73287101
155	262	3904	-45	-23	28	-27	13	109	1985	147919	1985	73287103
174	265	3931	-41	-26	23	-24	22	112	1986	147970	1986	73287121
162	257	3913	-44	-23	23	-24	22	112	1987	148068	1987	73287121
163	256	3913	-44	-22	28	-22	22	118	1988	148119	1988	73287124
174	267	3924	-43	-25	28	-22	22	118	1989	148217	1989	73287125
170	262	3929	-45	-28	26	-27	29	113	1990	148268	1990	73287127
163	252	3921	-45	-26	29	-27	29	113	1991	148366	1991	73287146
162	251	3931	-45	-27	26	-26	24	112	1992	148417	1992	73287146
172	252	3913	-44	-28	25	-26	24	112	1993	148515	1993	73287149
160	250	3935	-40	-24	25	-27	21	115	1994	148566	1994	73287149
166	249	3927	-43	-26	25	-27	21	115	1995	148664	1995	73287152
186	257	3912	-42	-23	26	-21	23	113	1996	148715	1996	73287153
159	273	3916	-47	-24	27	-21	23	113	1997	148813	1997	73287153
172	255	3917	-42	-23	27	-29	23	115	1998	148864	1998	73287170
172	265	3908	-44	-24	26	-29	23	115	1999	148962	1999	73287180
167	259	3925	-42	-26	26	-32	22	110	2000	149013	2000	73287184
177	267	3918	-43	-24	27	-32	22	110	2001	149111	2001	73287185
172	267	3945	-42	-26	24	-25	27	113	2002	149162	2002	73287195
179	253	3920	-45	-24	26	-25	27	113	2003	149260	2003	73287197
160	261	3935	-43	-26	26	-27	25	113	2004	149311	2004	73287197
172	251	3928	-44	-26	25	-27	25	113	2005	149409	2005	73287204
168	260	3913	-43	-25	27	-27	29	111	2006	149460	2006	73287205
162	264	3923	-43	-24	28	-27	29	111	2007	149558	2007	73287220
153	257	3912	-43	-24	26	-23	25	113	2008	149609	2008	73287222
151	256	3939	-45	-24	27	-23	25	113	2009	149707	2009	73287226
163	258	3902	-44	-27	28	-23	25	113	2010	149758	2010	73287229
166	280	3913	-45	-24	24	-23	25	113	2011	149856	2011	73287230
156	247	3940	-44	-24	25	-28	22	116	2012	149907	2012	73287232
157	259	3928	-43	-23	28	-28	22	116	2013	150005	2013	73287247
171	251	3900	-42	-26	24	-27	23	113	2014	150056	2014	73287247
167	270	3898	-44	-25	24	-27	23	113	2015	150154	2015	73287252
168	260	3911	-43	-24	28	-30	20	114	2016	150205	2016	73287253
168	253	3904	-43	-25	26	-30	20	114	2017	150303	2017	73287255
166	277	3912	-42	-26	27	-23	23	115	2018	150354	2018	73287272
170	262	3927	-44	-26	27	-23	23	115	2019	150452	2019	73287275
170	280	3927	-43	-27	25	-29	23	105	2020	150503	2020	73287277
169	262	3938	-42	-23	28	-29	23	105	2021	150601	2021	73287277
171	262	3907	-45	-25	28	-30	28	114	2022	150652	2022	73287280
172	260	3906	-44	-26	23	-30	28	114	2023	150750	2023	73287295
161	262	3911	-45	-27	24	-27	25	121	2024	150801	2024	73287296
163	240	3909	-43	-24	26	-27	25	121	2025	150899	2025	73287303
