Accl X	Accl Y	Accl Z	Gyro X	Gyro Y	Gyro Z	Mag X	Mag Y	Mag Z	RPkt#	Rtime	LPkt#	Ltime
467	299	3808	-20	-33	46	-55	169	185	0	0	0	73277236
434	298	3797	-19	-34	80	-55	169	185	1	101	1	73277239
452	300	3795	-23	-32	14	-58	172	182	2	155	2	73277241
420	294	3780	-22	-33	58	-58	172	182	3	256	3	73277242
447	313	3791	-22	-34	-23	-56	174	176	4	310	4	73277261
436	310	3801	-18	-35	55	-56	174	176	5	411	5	73277271
463	306	3816	-22	-33	42	-57	169	181	6	465	6	73277273
440	293	3796	-20	-31	38	-57	169	181	7	566	7	73277274
430	292	3809	-22	-33	64	-58	176	178	8	620	8	73277274
428	303	3795	-20	-32	56	-58	176	178	9	721	9	73277294
445	293	3810	-18	-31	8	-54	174	186	10	775	10	73277295
446	294	3795	-20	-32	45	-54	174	186	11	876	11	73277295
415	295	3779	-21	-34	28	-58	172	182	12	930	12	73277296
432	307	3788	-20	-31	29	-58	172	182	13	1031	13	73277297
445	294	3814	-20	-34	22	-59	169	183	14	1085	14	73277297
449	314	3805	-22	-34	-9	-59	169	183	15	1186	15	73277309
464	316	3796	-27	-33	8	-57	171	179	16	1240	16	73277310
463	298	3787	-22	-31	6	-57	171	179	17	1341	17	73277311
471	303	3815	-17	-28	61	-56	174	182	18	1395	18	73277320
463	303	3792	-20	-32	-7	-56	174	182	19	1496	19	73277321
462	306	3793	-20	-34	40	-57	175	179	20	1550	20	73277323
453	309	3807	-21	-33	53	-57	175	179	21	1651	21	73277335
446	301	3797	-16	-34	36	-57	177	181	22	1705	22	73277335
455	297	3815	-18	-34	38	-57	177	181	23	1806	23	73277345
448	293	3815	-22	-29	52	-52	172	184	24	1860	24	73277345
429	312	3839	-23	-33	20	-52	172	184	25	1961	25	73277359
425	297	3818	-19	-32	24	-60	172	178	26	2015	26	73277361
432	297	3804	-18	-32	26	-60	172	178	27	2116	27	73277361
455	307	3800	-19	-32	8	-62	176	182	28	2170	28	73277370
458	313	3801	-21	-31	32	-62	176	182	29	2271	29	73277370
452	301	3810	-23	-31	38	-62	172	180	30	2325	30	73277384
449	304	3799	-21	-31	33	-62	172	180	31	2426	31	73277385
452	302	3803	-22	-34	7	-62	172	182	32	2480	32	73277386
424	291	3785	-18	-31	44	-62	172	182	33	2581	33	73277395
447	293	3813	-16	-36	8	-59	171	183	34	2635	34	73277395
440	294	3781	-18	-32	65	-59	171	183	35	2736	35	73277397
426	287	3806	-22	-30	34	-51	173	189	36	2790	36	73277410
427	287	3809	-20	-33	-18	-51	173	189	37	2891	37	73277410
455	296	3795	-22	-32	-29	-60	174	178	38	2945	38	73277419
462	290	3789	-21	-34	18	-60	174	178	39	3046	39	73277420
459	302	3810	-22	-30	-9	-52	170	178	40	3100	40	73277434
456	291	3802	-22	-32	15	-52	170	178	41	3201	41	73277438
463	309	3828	-19	-35	-40	-54	174	182	42	3255	42	73277438
451	286	3802	-22	-33	-4	-54	174	182	43	3356	43	73277443
451	299	3807	-20	-33	54	-54	174	176	44	3410	44	73277444
468	297	3779	-21	-31	-43	-54	174	176	45	3511	45	73277486
438	300	3799	-22	-29	17	-53	169	183	46	3565	46	73277486
430	302	3773	-22	-33	33	-53	169	183	47	3666	47	73277488
444	311	3780	-18	-32	35	-62	172	178	48	3720	48	73277490
448	270	3809	-23	-34	66	-62	172	178	49	3821	49	73277490
446	302	3812	-18	-34	48	-61	175	179	50	3875	50	73277493
470	302	3797	-23	-33	41	-61	175	179	51	3976	51	73277494
458	290	3795	-23	-34	-9	-57	171	179	52	4030	52	73277496
464	284	3801	-21	-32	12	-57	171	179	53	4131	53	73277510
438	302	3780	-22	-33	-7	-56	174	182	54	4185	54	73277511
438	317	3785	-21	-29	-28	-56	174	182	55	4286	55	73277514
443	300	3816	-22	-33	53	-59	173	183	56	4340	56	73277514
461	309	3785	-21	-33	10	-59	173	183	57	4441	57	73277516
461	292	3800	-23	-30	-2	-60	172	182	58	4495	58	73277518
437	304	3794	-21	-31	-34	-60	172	182	59	4596	59	73277518
412	302	3797	-20	-32	9	-62	176	176	60	4650	60	73277534
431	284	3788	-21	-32	14	-62	176	176	61	4751	61	73277535
446	290	3800	-21	-28	-25	-57	177	185	62	4805	62	73277537
451	308	3782	-20	-31	22	-57	177	185	63	4906	63	73277540
435	318	3797	-19	-31	-16	-65	175	177	64	4960	64	73277540
432	305	3818	-23	-34	-5	-65	175	177	65	5061	65	73277563
440	296	3795	-21	-33	51	-59	171	181	66	5115	66	73277563
444	313	3809	-25	-33	-23	-59	171	181	67	5216	67	73277564
442	291	3816	-24	-33	43	-51	177	183	68	5270	68	73277566
470	280	3795	-20	-32	63	-51	177	183	69	5371	69	73277566
446	289	3800	-20	-29	-28	-55	171	181	70	5425	70	73277584
461	302	3775	-21	-31	29	-55	171	181	71	5526	71	73277585
426	303	3798	-23	-31	18	-60	166	186	72	5580	72	73277588
430	323	3812	-23	-33	22	-60	166	186	73	5681	73	73277588
447	307	3809	-22	-34	21	-55	171	183	74	5735	74	73277589
462	308	3787	-22	-33	74	-55	171	183	75	5836	75	73277609
445	312	3795	-19	-31	4	-54	170	184	76	5890	76	73277610
419	313	3812	-20	-32	35	-54	170	184	77	5991	77	73277613
443	312	3783	-23	-32	27	-54	172	180	78	6045	78	73277614
469	301	3798	-22	-34	77	-54	172	180	79	6146	79	73277616
472	299	3828	-21	-31	7	-56	170	178	80	6200	80	73277634
437	290	3789	-19	-31	-14	-56	170	178	81	6301	81	73277635
449	304	3805	-19	-31	1	-60	166	180	82	6355	82	73277638
450	301	3809	-19	-30	-11	-60	166	180	83	6456	83	73277639
455	296	3782	-19	-30	21	-62	180	182	84	6510	84	73277641
448	305	3789	-21	-32	67	-62	180	182	85	6611	85	73277660
437	288	3794	-16	-31	73	-55	169	185	86	6665	86	73277661
458	301	3826	-17	-29	8	-55	169	185	87	6766	87	73277663
447	293	3807	-20	-26	10	-54	172	184	88	6820	88	73277664
425	293	3818	-22	-30	40	-54	172	184	89	6921	89	73277666
437	289	3815	-21	-32	-7	-55	175	183	90	6975	90	73277684
447	320	3792	-20	-33	3	-55	175	183	91	7076	91	73277685
454	295	3780	-23	-32	1	-56	170	186	92	7130	92	73277688
447	288	3786	-24	-35	19	-56	170	186	93	7231	93	73277691
453	289	3796	-24	-33	12	-51	177	181	94	7285	94	73277691
444	298	3790	-22	-30	39	-51	177	181	95	7386	95	73277709
451	308	3792	-21	-28	-16	-58	174	186	96	7440	96	73277709
438	300	3799	-21	-31	1	-58	174	186	97	7541	97	73277713
435	305	3805	-22	-30	6	-56	172	186	98	7595	98	73277713
432	310	3804	-21	-32	33	-56	172	186	99	7696	99	73277715
429	305	3820	-21	-31	-52	-58	170	182	100	7750	100	73277720
455	305	3818	-22	-35	1	-58	170	182	101	7851	101	73277721
449	294	3805	-22	-30	21	-49	169	191	102	7905	102	73277737
433	312	3798	-21	-30	14	-49	169	191	103	8006	103	73277738
463	290	3792	-23	-33	39	-51	173	183	104	8060	104	73277745
442	292	3792	-20	-33	-5	-51	173	183	105	8161	105	73277750
463	303	3839	-20	-29	65	-57	171	179	106	8215	106	73277750
471	306	3820	-20	-31	8	-57	171	179	107	8316	107	73277763
449	292	3787	-24	-29	44	-51	171	183	108	8370	108	73277765
438	299	3778	-22	-31	-15	-51	171	183	109	8471	109	73277769
441	305	3794	-20	-32	-18	-57	171	183	110	8525	110	73277769
437	295	3826	-22	-34	29	-57	171	183	111	8626	111	73277787
448	316	3789	-21	-33	-9	-57	165	183	112	8680	112	73277788
442	300	3792	-21	-31	62	-57	165	183	113	8781	113	73277788
431	299	3796	-19	-31	81	-58	176	176	114	8835	114	73277793
442	305	3806	-20	-33	-1	-58	176	176	115	8936	115	73277794
471	291	3810	-19	-30	65	-57	171	183	116	8990	116	73277808
446	297	3794	-20	-31	17	-57	171	183	117	9091	117	73277809
440	308	3802	-22	-32	-12	-62	166	182	118	9145	118	73277809
447	298	3787	-21	-35	14	-62	166	182	119	9246	119	73277818
426	303	3823	-24	-32	7	-59	179	181	120	9300	120	73277819
437	308	3805	-23	-33	12	-59	179	181	121	9401	121	73277823
410	295	3805	-22	-33	-17	-54	170	190	122	9455	122	73277854
440	295	3810	-23	-30	35	-54	170	190	123	9556	123	73277855
456	296	3820	-24	-31	76	-56	168	184	124	9610	124	73277858
463	313	3793	-24	-32	-11	-56	168	184	125	9711	125	73277859
436	288	3814	-21	-31	59	-57	173	183	126	9765	126	73277863
438	287	3777	-22	-34	23	-57	173	183	127	9866	127	73277863
443	294	3809	-24	-31	6	-62	170	182	128	9920	128	73277864
448	301	3810	-23	-32	2	-62	170	182	129	10021	129	73277866
433	301	3775	-21	-31	59	-54	170	182	130	10075	130	73277866
433	299	3813	-18	-33	70	-54	170	182	131	10176	131	73277868
435	310	3805	-21	-33	17	-60	168	188	132	10230	132	73277902
444	302	3806	-20	-31	10	-60	168	188	133	10331	133	73277902
466	309	3816	-21	-33	11	-61	177	181	134	10385	134	73277905
439	295	3809	-20	-36	29	-61	177	181	135	10486	135	73277905
450	294	3791	-22	-34	33	-56	172	180	136	10540	136	73277909
452	300	3814	-22	-32	47	-56	172	180	137	10641	137	73277909
444	279	3780	-19	-33	52	-60	178	190	138	10695	138	73277911
431	296	3781	-20	-32	22	-60	178	190	139	10796	139	73277926
428	296	3811	-19	-31	27	-56	172	186	140	10850	140	73277927
454	309	3823	-20	-31	55	-56	172	186	141	10951	141	73277930
452	301	3802	-20	-32	47	-55	163	185	142	11005	142	73277931
446	305	3783	-21	-35	-8	-55	163	185	143	11106	143	73277933
419	289	3797	-24	-32	44	-53	173	177	144	11160	144	73277952
423	295	3803	-21	-29	-2	-53	173	177	145	11261	145	73277953
436	311	3812	-25	-30	-30	-57	167	183	146	11315	146	73277956
447	297	3799	-21	-31	14	-57	167	183	147	11416	147	73277956
442	316	3797	-17	-32	62	-56	174	178	148	11470	148	73277958
437	299	3809	-19	-34	48	-56	174	178	149	11571	149	73277977
418	296	3788	-20	-31	-30	-62	168	174	150	11625	150	73277977
440	308	3748	-16	-34	38	-62	168	174	151	11726	151	73277981
436	303	3804	-21	-32	1	-57	167	183	152	11780	152	73277981
448	301	3795	-19	-35	-42	-57	167	183	153	11881	153	73277983
438	294	3819	-23	-31	44	-58	172	180	154	11935	154	73278002
449	298	3799	-22	-32	-14	-58	172	180	155	12036	155	73278003
432	297	3791	-24	-31	26	-56	172	182	156	12090	156	73278006
439	299	3791	-24	-32	47	-56	172	182	157	12191	157	73278006
454	306	3790	-21	-30	4	-58	176	180	158	12245	158	73278008
462	303	3808	-20	-31	35	-58	176	180	159	12346	159	73278027
438	315	3806	-18	-34	3	-56	170	180	160	12400	160	73278027
437	305	3769	-20	-33	58	-56	170	180	161	12501	161	73278031
435	308	3789	-19	-31	18	-59	169	185	162	12555	162	73278032
447	310	3821	-23	-31	18	-59	169	185	163	12656	163	73278035
446	301	3791	-23	-31	18	-53	171	179	164	12710	164	73278036
431	297	3787	-22	-32	51	-53	171	179	165	12811	165	73278036
436	299	3779	-19	-33	-19	-64	172	182	166	12865	166	73278052
446	296	3774	-20	-34	62	-64	172	182	167	12966	167	73278052
440	310	3806	-20	-33	21	-62	166	188	168	13020	168	73278061
438	308	3796	-19	-31	80	-62	166	188	169	13121	169	73278061
444	293	3812	-16	-31	-41	-55	165	177	170	13175	170	73278077
452	302	3829	-19	-32	-19	-55	165	177	171	13276	171	73278079
444	311	3821	-18	-31	49	-55	173	181	172	13330	172	73278079
456	291	3781	-24	-31	48	-55	173	181	173	13431	173	73278086
459	296	3822	-20	-34	83	-57	169	181	174	13485	174	73278086
440	303	3779	-21	-36	17	-57	169	181	175	13586	175	73278088
450	301	3777	-19	-34	40	-49	165	177	176	13640	176	73278129
449	309	3809	-20	-31	53	-49	165	177	177	13742	177	73278130
446	304	3805	-24	-30	-8	-55	177	181	178	13795	178	73278133
438	306	3800	-23	-31	34	-55	177	181	179	13896	179	73278134
433	293	3822	-23	-34	-2	-58	174	178	180	13950	180	73278136
476	283	3814	-21	-30	46	-58	174	178	181	14051	181	73278137
460	312	3803	-23	-30	69	-59	169	179	182	14105	182	73278137
460	303	3795	-21	-32	16	-59	169	179	183	14206	183	73278152
443	288	3815	-19	-32	73	-55	169	179	184	14260	184	73278152
421	292	3794	-21	-33	49	-55	169	179	185	14361	185	73278154
440	303	3804	-23	-33	9	-60	172	182	186	14415	186	73278156
453	296	3782	-20	-34	44	-60	172	182	187	14516	187	73278156
461	301	3805	-22	-33	-20	-57	171	183	188	14570	188	73278159
450	305	3795	-22	-35	-11	-57	171	183	189	14671	189	73278160
410	281	3784	-20	-33	4	-59	175	179	190	14725	190	73278162
458	301	3772	-20	-31	27	-59	175	179	191	14826	191	73278177
464	308	3814	-22	-31	26	-58	172	184	192	14880	192	73278177
450	291	3777	-18	-33	-41	-58	172	184	193	14981	193	73278182
418	297	3815	-22	-31	54	-62	172	178	194	15035	194	73278182
436	289	3787	-23	-33	48	-62	172	178	195	15136	195	73278184
447	287	3801	-22	-33	43	-52	168	178	196	15190	196	73278203
432	309	3796	-20	-30	31	-52	168	178	197	15291	197	73278204
447	290	3795	-21	-32	15	-59	169	177	198	15345	198	73278207
453	311	3796	-21	-32	46	-59	169	177	199	15446	199	73278216
444	318	3815	-23	-32	-33	-60	174	180	200	15500	200	73278228
454	295	3805	-21	-32	10	-60	174	180	201	15601	201	73278235
448	299	3798	-23	-32	37	-53	171	185	202	15655	202	73278236
434	295	3791	-21	-32	-32	-53	171	185	203	15756	203	73278236
437	309	3824	-22	-33	60	-56	170	184	204	15810	204	73278236
445	305	3782	-19	-35	75	-56	170	184	205	15911	205	73278253
435	310	3829	-22	-33	-18	-55	175	189	206	15965	206	73278254
439	300	3808	-21	-32	100	-55	175	189	207	16066	207	73278256
431	309	3783	-19	-31	44	-62	170	178	208	16120	208	73278257
444	314	3801	-19	-33	17	-62	170	178	209	16221	209	73278258
437	281	3782	-21	-35	49	-65	177	181	210	16275	210	73278277
451	305	3807	-20	-33	28	-65	177	181	211	16376	211	73278277
428	305	3790	-20	-33	30	-56	174	188	212	16430	212	73278279
448	304	3784	-21	-32	8	-56	174	188	213	16531	213	73278281
425	287	3790	-22	-32	54	-52	170	188	214	16585	214	73278281
449	300	3800	-21	-32	51	-52	170	188	215	16686	215	73278302
451	311	3795	-21	-32	-2	-60	170	182	216	16740	216	73278304
467	313	3798	-18	-33	40	-60	170	182	217	16841	217	73278304
442	296	3787	-20	-32	-7	-55	169	179	218	16895	218	73278306
441	290	3793	-24	-33	-1	-55	169	179	219	16996	219	73278306
428	300	3789	-18	-32	13	-55	173	183	220	17050	220	73278327
449	300	3798	-14	-32	15	-55	173	183	221	17151	221	73278327
433	294	3802	-20	-31	43	-56	168	184	222	17205	222	73278329
425	290	3788	-23	-33	-32	-56	168	184	223	17306	223	73278331
449	302	3792	-18	-33	42	-61	173	183	224	17360	224	73278332
464	297	3810	-22	-31	10	-61	173	183	225	17461	225	73278353
440	302	3799	-20	-31	3	-61	173	181	226	17515	226	73278354
444	301	3799	-20	-31	101	-61	173	181	227	17616	227	73278356
429	298	3801	-21	-33	-9	-58	174	184	228	17670	228	73278356
457	300	3799	-19	-33	11	-58	174	184	229	17771	229	73278356
443	297	3818	-21	-34	-4	-59	179	183	230	17825	230	73278377
456	291	3794	-18	-32	21	-59	179	183	231	17926	231	73278385
452	296	3813	-20	-35	41	-53	173	185	232	17980	232	73278388
418	283	3776	-24	-33	8	-53	173	185	233	18081	233	73278390
457	294	3821	-19	-34	14	-60	178	182	234	18135	234	73278391
455	304	3780	-19	-31	26	-60	178	182	235	18236	235	73278402
448	292	3805	-20	-29	20	-53	175	185	236	18290	236	73278403
461	288	3824	-22	-31	27	-53	175	185	237	18391	237	73278406
454	302	3825	-18	-30	-3	-61	169	177	238	18445	238	73278408
451	292	3786	-21	-31	-6	-61	169	177	239	18546	239	73278408
437	304	3760	-18	-32	14	-59	171	179	240	18600	240	73278427
436	315	3795	-19	-33	8	-59	171	179	241	18701	241	73278427
437	294	3803	-22	-32	14	-60	170	182	242	18755	242	73278431
438	299	3782	-22	-32	-16	-60	170	182	243	18856	243	73278431
458	301	3788	-22	-33	39	-59	173	181	244	18910	244	73278433
466	294	3813	-24	-32	22	-59	173	181	245	19011	245	73278438
452	314	3804	-23	-33	-15	-58	174	186	246	19065	246	73278439
457	294	3770	-18	-31	2	-58	174	186	247	19166	247	73278452
464	300	3832	-19	-33	20	-56	168	184	248	19220	248	73278453
442	301	3799	-21	-32	33	-56	168	184	249	19321	249	73278454
437	305	3783	-23	-31	25	-57	175	187	250	19375	250	73278487
448	298	3789	-20	-32	-36	-57	175	187	251	19476	251	73278507
458	292	3804	-20	-33	97	-57	165	183	252	19530	252	73278521
433	289	3772	-18	-33	65	-57	165	183	253	19631	253	73278524
442	313	3792	-20	-35	15	-56	176	180	254	19685	254	73278526
452	317	3807	-23	-32	13	-56	176	180	255	19786	255	73278527
454	282	3790	-21	-31	1	-55	169	177	256	19840	256	73278530
440	303	3797	-20	-32	49	-55	169	177	257	19941	257	73278534
440	305	3819	-19	-34	-8	-54	172	182	258	19995	258	73278535
434	304	3802	-22	-31	-20	-54	172	182	259	20096	259	73278535
447	281	3815	-19	-29	32	-56	172	182	260	20150	260	73278536
440	288	3774	-21	-29	36	-56	172	182	261	20251	261	73278536
435	299	3774	-20	-31	-7	-54	178	178	262	20305	262	73278537
438	309	3767	-22	-30	0	-54	178	178	263	20406	263	73278546
424	297	3759	-25	-31	58	-57	171	179	264	20460	264	73278548
444	297	3789	-26	-33	48	-57	171	179	265	20561	265	73278548
466	296	3806	-26	-31	13	-54	170	184	266	20615	266	73278551
437	307	3792	-21	-29	14	-54	170	184	267	20716	267	73278551
425	302	3809	-20	-32	-18	-62	170	184	268	20770	268	73278553
455	304	3811	-21	-32	1	-62	170	184	269	20871	269	73278558
468	309	3804	-21	-33	46	-57	167	185	270	20925	270	73278561
444	295	3793	-19	-33	28	-57	167	185	271	21026	271	73278562
437	285	3801	-18	-31	11	-57	171	185	272	21080	272	73278581
430	309	3805	-22	-32	26	-57	171	185	273	21181	273	73278581
418	308	3797	-19	-30	4	-62	170	182	274	21235	274	73278584
427	297	3795	-19	-34	51	-62	170	182	275	21336	275	73278584
469	298	3805	-24	-32	-26	-58	176	180	276	21390	276	73278587
453	299	3800	-18	-34	51	-58	176	180	277	21491	277	73278604
421	298	3798	-20	-32	47	-58	168	184	278	21545	278	73278605
444	305	3802	-20	-32	17	-58	168	184	279	21646	279	73278608
453	320	3807	-21	-33	3	-55	171	179	280	21700	280	73278609
435	305	3811	-26	-34	30	-55	171	179	281	21801	281	73278611
435	308	3815	-23	-30	24	-58	170	186	282	21855	282	73278630
439	306	3810	-18	-31	-36	-58	170	186	283	21956	283	73278636
458	297	3799	-16	-32	29	-57	165	185	284	22010	284	73278636
441	284	3808	-19	-33	37	-57	165	185	285	22111	285	73278637
421	283	3836	-21	-32	-49	-60	174	182	286	22165	286	73278654
434	300	3792	-22	-32	49	-60	174	182	287	22266	287	73278654
441	294	3792	-21	-34	-40	-62	176	188	288	22320	288	73278655
446	311	3816	-20	-31	27	-62	176	188	289	22421	289	73278658
431	303	3775	-18	-30	76	-59	171	183	290	22475	290	73278658
444	301	3793	-18	-34	-40	-59	171	183	291	22576	291	73278679
448	305	3804	-17	-32	-29	-57	171	185	292	22630	292	73278680
479	307	3820	-20	-34	2	-57	171	185	293	22731	293	73278682
456	302	3806	-18	-34	26	-59	171	189	294	22785	294	73278683
419	288	3781	-20	-34	32	-59	171	189	295	22886	295	73278683
455	293	3809	-21	-31	13	-63	169	183	296	22940	296	73278704
440	300	3798	-21	-32	24	-63	169	183	297	23041	297	73278706
461	285	3793	-21	-32	36	-56	174	176	298	23095	298	73278707
433	312	3813	-19	-32	12	-56	174	176	299	23196	299	73278710
430	293	3785	-20	-33	69	-58	178	178	300	23250	300	73278716
441	295	3817	-19	-35	-47	-58	178	178	301	23351	301	73278754
467	289	3810	-21	-33	95	-55	173	179	302	23405	302	73278755
449	302	3797	-23	-33	37	-55	173	179	303	23506	303	73278757
436	306	3809	-18	-31	32	-55	169	179	304	23560	304	73278765
464	302	3825	-19	-29	52	-55	169	179	305	23662	305	73278765
460	314	3803	-20	-32	-15	-58	172	184	306	23715	306	73278765
419	296	3786	-19	-34	57	-58	172	184	307	23817	307	73278766
457	294	3786	-21	-31	42	-57	175	181	308	23870	308	73278766
437	295	3788	-24	-34	44	-57	175	181	309	23971	309	73278779
422	309	3804	-24	-33	53	-63	175	181	310	24025	310	73278780
462	296	3798	-18	-33	10	-63	175	181	311	24126	311	73278783
412	300	3782	-19	-33	-1	-63	171	185	312	24180	312	73278783
448	302	3780	-19	-32	-7	-63	171	185	313	24281	313	73278785
476	311	3793	-23	-31	9	-56	168	184	314	24335	314	73278787
443	311	3804	-19	-29	40	-56	168	184	315	24436	315	73278787
439	288	3823	-20	-32	9	-53	177	183	316	24490	316	73278804
450	287	3812	-20	-32	46	-53	177	183	317	24591	317	73278804
436	306	3801	-21	-34	47	-60	164	182	318	24645	318	73278808
442	300	3767	-22	-32	28	-60	164	182	319	24746	319	73278809
446	295	3787	-21	-29	60	-55	175	183	320	24800	320	73278810
430	297	3807	-18	-31	-13	-55	175	183	321	24901	321	73278813
441	294	3788	-20	-31	-6	-62	172	182	322	24955	322	73278813
431	294	3804	-21	-32	6	-62	172	182	323	25056	323	73278829
460	305	3788	-23	-31	57	-52	170	184	324	25110	324	73278829
444	286	3806	-23	-34	43	-52	170	184	325	25211	325	73278830
460	294	3787	-24	-33	28	-54	174	184	326	25265	326	73278863
453	289	3785	-23	-32	65	-54	174	184	327	25366	327	73278863
448	285	3802	-23	-34	45	-56	170	184	328	25420	328	73278867
445	293	3810	-26	-33	19	-56	170	184	329	25521	329	73278867
437	303	3787	-21	-30	78	-58	170	184	330	25575	330	73278869
445	291	3809	-20	-37	14	-58	170	184	331	25676	331	73278871
428	303	3784	-22	-36	24	-64	174	180	332	25730	332	73278871
452	310	3782	-20	-33	32	-64	174	180	333	25831	333	73278874
445	298	3793	-19	-36	-9	-55	179	177	334	25885	334	73278875
426	295	3808	-21	-34	49	-55	179	177	335	25986	335	73278877
439	294	3783	-20	-35	39	-52	168	184	336	26040	336	73278897
460	307	3805	-20	-33	52	-52	168	184	337	26141	337	73278897
468	296	3804	-20	-32	-8	-58	168	182	338	26195	338	73278901
469	292	3778	-21	-32	-4	-58	168	182	339	26296	339	73278901
436	294	3815	-19	-33	73	-56	172	176	340	26350	340	73278903
432	299	3777	-20	-31	14	-56	172	176	341	26451	341	73278919
431	296	3805	-20	-33	-34	-53	169	183	342	26505	342	73278920
461	296	3796	-21	-33	38	-53	169	183	343	26606	343	73278923
464	303	3796	-20	-34	63	-58	172	180	344	26660	344	73278923
442	295	3801	-24	-32	31	-58	172	180	345	26761	345	73278926
444	291	3803	-20	-31	-51	-58	166	182	346	26815	346	73278933
434	301	3804	-21	-31	31	-58	166	182	347	26916	347	73278934
411	310	3810	-17	-31	43	-58	174	184	348	26970	348	73278960
423	307	3803	-20	-32	-23	-58	174	184	349	27071	349	73278960
459	309	3813	-21	-36	10	-58	170	182	350	27125	350	73278963
443	315	3771	-23	-32	14	-58	170	182	351	27226	351	73278963
432	290	3790	-24	-31	-4	-56	172	178	352	27280	352	73278965
436	310	3810	-23	-32	14	-56	172	178	353	27381	353	73278983
440	292	3783	-21	-35	-14	-52	170	182	354	27435	354	73278984
444	300	3800	-21	-32	94	-52	170	182	355	27536	355	73278987
435	285	3796	-20	-34	40	-59	171	183	356	27590	356	73278987
452	301	3818	-22	-30	8	-59	171	183	357	27691	357	73278989
446	306	3805	-26	-30	18	-59	169	181	358	27745	358	73279008
441	308	3807	-22	-29	20	-59	169	181	359	27846	359	73279008
454	292	3795	-21	-32	60	-56	166	178	360	27900	360	73279012
430	299	3800	-21	-32	-25	-56	166	178	361	28001	361	73279015
447	313	3807	-22	-34	16	-58	174	180	362	28055	362	73279015
467	290	3796	-21	-30	20	-58	174	180	363	28156	363	73279033
430	306	3812	-21	-33	-36	-63	177	181	364	28210	364	73279043
464	302	3792	-20	-29	45	-63	177	181	365	28311	365	73279049
434	293	3799	-21	-31	15	-59	167	185	366	28365	366	73279053
439	292	3808	-23	-33	-9	-59	167	185	367	28466	367	73279059
454	297	3804	-20	-33	17	-56	176	180	368	28520	368	73279063
426	306	3792	-23	-34	-18	-56	176	180	369	28621	369	73279064
444	298	3806	-23	-34	8	-57	169	181	370	28675	370	73279066
470	284	3807	-24	-32	31	-57	169	181	371	28776	371	73279066
461	305	3792	-21	-33	-11	-56	174	184	372	28830	372	73279067
447	297	3794	-23	-32	44	-56	174	184	373	28931	373	73279084
454	291	3784	-19	-32	41	-57	171	181	374	28986	374	73279084
452	304	3794	-19	-32	14	-57	171	181	375	29087	375	73279087
424	303	3789	-22	-33	6	-57	169	185	376	29141	376	73279087
441	305	3794	-24	-34	4	-57	169	185	377	29242	377	73279091
465	319	3811	-23	-34	17	-56	176	182	378	29296	378	73279091
448	298	3791	-20	-35	15	-56	176	182	379	29397	379	73279091
436	284	3811	-18	-31	57	-53	171	185	380	29451	380	73279110
469	298	3801	-18	-31	-29	-53	171	185	381	29552	381	73279110
448	305	3823	-25	-33	32	-60	174	182	382	29606	382	73279117
448	286	3757	-20	-31	66	-60	174	182	383	29707	383	73279119
435	311	3795	-19	-33	-21	-53	171	183	384	29761	384	73279121
451	303	3816	-20	-33	61	-53	171	183	385	29862	385	73279133
432	283	3805	-21	-33	2	-58	176	190	386	29916	386	73279134
453	304	3798	-21	-33	44	-58	176	190	387	30017	387	73279141
466	308	3794	-18	-35	35	-61	167	181	388	30071	388	73279144
459	305	3812	-23	-32	16	-61	167	181	389	30172	389	73279158
431	305	3792	-23	-33	20	-54	170	182	390	30226	390	73279166
446	307	3811	-22	-33	17	-54	170	182	391	30327	391	73279166
439	287	3793	-20	-33	-1	-62	174	184	392	30381	392	73279167
423	306	3789	-19	-34	-17	-62	174	184	393	30482	393	73279167
438	294	3787	-22	-31	-18	-54	168	176	394	30536	394	73279168
463	301	3799	-20	-32	23	-54	168	176	395	30637	395	73279182
449	294	3786	-22	-33	6	-61	175	183	396	30691	396	73279186
443	300	3805	-21	-30	27	-61	175	183	397	30792	397	73279189
448	301	3768	-23	-31	12	-58	170	182	398	30846	398	73279190
466	297	3808	-21	-28	1	-58	170	182	399	30947	399	73279193
448	308	3800	-20	-33	-2	-57	171	183	400	31001	400	73279207
443	295	3786	-20	-32	-10	-57	171	183	401	31102	401	73279207
433	301	3828	-21	-31	32	-59	173	181	402	31156	402	73279214
445	308	3790	-22	-34	69	-59	173	181	403	31257	403	73279215
439	300	3801	-24	-33	18	-55	171	183	404	31311	404	73279217
429	303	3818	-19	-35	93	-55	171	183	405	31412	405	73279232
466	300	3820	-21	-32	21	-60	172	182	406	31466	406	73279233
453	296	3809	-21	-29	12	-60	172	182	407	31567	407	73279237
445	296	3771	-17	-31	26	-57	175	181	408	31621	408	73279237
446	305	3793	-18	-34	-8	-57	175	181	409	31722	409	73279257
459	301	3791	-22	-33	25	-57	169	183	410	31776	410	73279257
464	300	3809	-23	-30	19	-57	169	183	411	31878	411	73279259
440	316	3820	-21	-33	42	-59	175	181	412	31931	412	73279263
457	305	3806	-20	-31	40	-59	175	181	413	32032	413	73279263
436	300	3798	-22	-33	-1	-54	176	178	414	32086	414	73279282
445	295	3799	-22	-32	7	-54	176	178	415	32187	415	73279283
428	302	3802	-23	-32	13	-57	171	183	416	32241	416	73279284
461	303	3805	-17	-31	-16	-57	171	183	417	32342	417	73279286
424	299	3795	-19	-31	59	-58	172	178	418	32396	418	73279286
428	294	3785	-19	-34	-22	-58	172	178	419	32497	419	73279307
427	294	3799	-18	-30	39	-55	167	187	420	32551	420	73279307
438	315	3770	-21	-32	23	-55	167	187	421	32652	421	73279310
469	298	3783	-20	-35	7	-60	176	186	422	32706	422	73279311
465	308	3826	-21	-32	67	-60	176	186	423	32807	423	73279314
427	306	3792	-18	-32	16	-60	176	182	424	32861	424	73279332
454	309	3798	-19	-33	60	-60	176	182	425	32963	425	73279337
459	299	3799	-19	-30	51	-53	169	179	426	33016	426	73279338
421	300	3806	-20	-31	-54	-53	169	179	427	33117	427	73279338
434	299	3801	-19	-34	41	-59	175	179	428	33171	428	73279339
450	303	3806	-22	-34	6	-59	175	179	429	33272	429	73279357
442	302	3785	-20	-29	45	-62	168	184	430	33326	430	73279358
437	303	3820	-22	-33	17	-62	168	184	431	33427	431	73279359
449	297	3833	-22	-32	35	-59	173	179	432	33481	432	73279361
430	310	3801	-21	-33	30	-59	173	179	433	33582	433	73279363
446	291	3811	-24	-32	46	-57	173	179	434	33636	434	73279393
436	304	3797	-21	-31	43	-57	173	179	435	33737	435	73279393
447	303	3809	-19	-32	56	-60	174	186	436	33791	436	73279408
445	297	3794	-21	-31	2	-60	174	186	437	33892	437	73279408
440	302	3818	-24	-32	-7	-61	171	179	438	33946	438	73279410
434	324	3805	-22	-31	29	-61	171	179	439	34047	439	73279412
455	296	3805	-24	-31	82	-55	169	185	440	34101	440	73279413
445	280	3788	-21	-33	37	-55	169	185	441	34202	441	73279415
438	297	3797	-19	-29	-21	-57	173	187	442	34256	442	73279416
449	299	3802	-20	-32	21	-57	173	187	443	34357	443	73279418
443	295	3810	-19	-34	15	-56	176	180	444	34411	444	73279433
443	303	3782	-19	-32	15	-56	176	180	445	34512	445	73279435
442	307	3792	-21	-30	38	-59	169	179	446	34566	446	73279437
440	301	3789	-19	-31	26	-59	169	179	447	34667	447	73279437
453	304	3804	-22	-32	46	-58	172	180	448	34721	448	73279439
456	317	3788	-23	-32	11	-58	172	180	449	34823	449	73279457
462	307	3792	-22	-34	27	-62	168	182	450	34876	450	73279457
424	306	3807	-21	-34	20	-62	168	182	451	34977	451	73279461
453	317	3828	-23	-31	-10	-56	174	184	452	35031	452	73279463
449	282	3809	-21	-32	39	-56	174	184	453	35132	453	73279464
437	295	3780	-17	-34	18	-60	174	186	454	35186	454	73279482
430	297	3803	-20	-34	-1	-60	174	186	455	35287	455	73279483
445	315	3803	-21	-34	50	-55	175	185	456	35341	456	73279485
442	302	3798	-20	-32	-8	-55	175	185	457	35442	457	73279486
442	304	3794	-20	-32	45	-58	172	182	458	35497	458	73279488
448	301	3796	-20	-32	50	-58	172	182	459	35598	459	73279507
450	291	3789	-21	-31	11	-54	168	180	460	35652	460	73279507
429	292	3762	-21	-33	2	-54	168	180	461	35753	461	73279512
466	301	3817	-20	-32	0	-58	170	184	462	35807	462	73279514
445	301	3810	-21	-33	-28	-58	170	184	463	35908	463	73279514
445	292	3799	-21	-30	45	-58	172	182	464	35962	464	73279514
445	310	3805	-18	-34	29	-58	172	182	465	36063	465	73279514
446	295	3803	-24	-32	32	-60	168	182	466	36117	466	73279536
449	300	3794	-21	-32	-19	-60	168	182	467	36218	467	73279536
442	303	3830	-19	-29	70	-64	174	184	468	36272	468	73279539
447	284	3827	-25	-30	0	-64	174	184	469	36373	469	73279540
433	294	3812	-26	-31	-26	-62	170	180	470	36427	470	73279543
448	298	3809	-24	-34	-14	-62	170	180	471	36528	471	73279559
456	297	3813	-20	-33	1	-58	170	188	472	36582	472	73279565
448	280	3778	-19	-33	46	-58	170	188	473	36683	473	73279565
426	301	3812	-21	-36	45	-57	173	187	474	36737	474	73279566
445	313	3811	-17	-34	25	-57	173	187	475	36838	475	73279567
468	279	3799	-21	-33	84	-55	169	181	476	36892	476	73279581
435	310	3803	-17	-33	37	-55	169	181	477	36993	477	73279581
443	293	3838	-20	-33	50	-55	175	179	478	37047	478	73279589
427	306	3799	-21	-30	46	-55	175	179	479	37148	479	73279590
457	316	3823	-19	-31	-20	-58	170	178	480	37202	480	73279592
440	295	3798	-20	-29	27	-58	170	178	481	37303	481	73279626
460	299	3794	-23	-29	2	-56	176	178	482	37357	482	73279626
464	299	3790	-19	-29	12	-56	176	178	483	37458	483	73279630
466	308	3787	-19	-33	24	-59	175	187	484	37512	484	73279630
449	291	3794	-20	-32	45	-59	175	187	485	37613	485	73279632
454	293	3808	-20	-33	18	-64	174	182	486	37667	486	73279633
441	297	3806	-22	-33	39	-64	174	182	487	37768	487	73279633
459	317	3816	-20	-31	58	-58	176	180	488	37822	488	73279637
443	304	3794	-17	-30	52	-58	176	180	489	37923	489	73279637
445	305	3798	-22	-33	61	-57	171	183	490	37978	490	73279652
448	295	3797	-19	-34	26	-57	171	183	491	38079	491	73279654
427	298	3787	-23	-33	4	-57	171	179	492	38133	492	73279654
429	292	3781	-22	-35	27	-57	171	179	493	38234	493	73279676
449	304	3793	-20	-31	27	-56	170	184	494	38288	494	73279696
440	302	3812	-22	-31	27	-56	170	184	495	38389	495	73279698
406	297	3809	-22	-31	43	-58	170	182	496	38443	496	73279724
438	304	3834	-23	-30	56	-58	170	182	497	38544	497	73279729
470	297	3810	-25	-31	54	-57	175	179	498	38598	498	73279730
436	302	3783	-23	-32	21	-57	175	179	499	38699	499	73279733
432	300	3828	-20	-31	52	-56	168	182	500	38753	500	73279734
446	299	3812	-19	-33	35	-56	168	182	501	38854	501	73279734
436	296	3788	-19	-32	7	-55	173	181	502	38908	502	73279734
433	300	3790	-21	-31	65	-55	173	181	503	39010	503	73279735
453	302	3818	-20	-30	-10	-55	175	181	504	39063	504	73279735
456	283	3775	-22	-33	21	-55	175	181	505	39164	505	73279736
425	285	3806	-24	-34	78	-57	167	179	506	39218	506	73279736
431	289	3777	-20	-32	60	-57	167	179	507	39319	507	73279736
457	295	3808	-21	-30	41	-61	175	177	508	39373	508	73279737
456	291	3794	-22	-33	-2	-61	175	177	509	39474	509	73279738
441	288	3813	-20	-32	-4	-58	172	182	510	39528	510	73279751
434	291	3784	-17	-34	17	-58	172	182	511	39629	511	73279751
436	293	3808	-21	-32	-5	-58	174	182	512	39683	512	73279753
456	302	3807	-23	-35	18	-58	174	182	513	39784	513	73279761
468	292	3800	-22	-32	-32	-55	175	185	514	39838	514	73279762
439	291	3798	-23	-32	-21	-55	175	185	515	39939	515	73279776
437	292	3809	-21	-32	81	-58	166	188	516	39993	516	73279776
437	309	3835	-19	-32	-25	-58	166	188	517	40094	517	73279778
443	307	3796	-17	-30	11	-59	175	179	518	40148	518	73279786
459	302	3802	-19	-30	-11	-59	175	179	519	40249	519	73279786
438	290	3799	-19	-34	39	-60	174	188	520	40303	520	73279801
436	305	3804	-17	-33	23	-60	174	188	521	40404	521	73279801
453	303	3788	-22	-33	27	-52	176	184	522	40458	522	73279804
459	295	3789	-19	-35	-7	-52	176	184	523	40559	523	73279810
456	298	3810	-20	-33	41	-62	174	182	524	40613	524	73279813
431	300	3811	-21	-33	17	-62	174	182	525	40715	525	73279826
460	291	3799	-20	-32	-8	-57	169	185	526	40768	526	73279826
445	298	3790	-24	-31	13	-57	169	185	527	40869	527	73279829
439	290	3798	-19	-34	59	-55	173	181	528	40923	528	73279830
434	301	3797	-22	-34	43	-55	173	181	529	41024	529	73279830
436	295	3786	-19	-31	19	-62	176	178	530	41078	530	73279851
468	299	3826	-21	-32	14	-62	176	178	531	41179	531	73279867
449	299	3779	-23	-32	6	-58	172	188	532	41233	532	73279899
454	302	3789	-20	-33	76	-58	172	188	533	41335	533	73279908
446	310	3799	-23	-32	38	-57	179	179	534	41388	534	73279913
443	313	3790	-24	-32	27	-57	179	179	535	41490	535	73279920
442	303	3810	-21	-30	39	-56	170	182	536	41543	536	73279953
435	297	3791	-20	-34	-22	-56	170	182	537	41644	537	73279956
436	305	3805	-23	-34	-8	-61	171	177	538	41698	538	73279964
449	304	3815	-20	-35	35	-61	171	177	539	41799	539	73279984
461	298	3804	-20	-32	20	-60	176	178	540	41853	540	73280008
431	318	3803	-17	-33	65	-60	176	178	541	41954	541	73280018
432	318	3828	-16	-31	59	-57	175	187	542	42008	542	73280023
445	307	3793	-19	-31	24	-57	175	187	543	42110	543	73280026
436	301	3814	-19	-30	33	-57	175	185	544	42163	544	73280029
457	305	3804	-20	-32	27	-57	175	185	545	42265	545	73280032
445	302	3791	-22	-34	41	-57	171	185	546	42319	546	73280037
447	304	3786	-23	-31	56	-57	171	185	547	42420	547	73280042
461	298	3801	-21	-29	-11	-57	171	181	548	42474	548	73280045
438	286	3801	-22	-31	4	-57	171	181	549	42575	549	73280047
447	303	3833	-22	-31	5	-63	167	177	550	42629	550	73280050
440	303	3815	-18	-31	-9	-63	167	177	551	42730	551	73280052
448	315	3791	-15	-33	-16	-61	171	179	552	42784	552	73280064
454	283	3797	-18	-32	15	-61	171	179	553	42885	553	73280110
435	312	3823	-20	-33	-51	-65	171	185	554	42939	554	73280120
455	306	3797	-22	-33	-56	-65	171	185	555	43040	555	73280148
452	310	3815	-17	-33	-13	-57	173	173	556	43094	556	73280153
443	292	3793	-22	-33	18	-57	173	173	557	43196	557	73280156
450	299	3813	-22	-31	26	-58	170	176	558	43249	558	73280160
462	292	3792	-20	-33	29	-58	170	176	559	43350	559	73280164
458	301	3822	-19	-29	40	-54	170	186	560	43404	560	73280168
446	315	3796	-16	-31	38	-54	170	186	561	43505	561	73280175
417	285	3801	-18	-33	45	-60	176	180	562	43559	562	73280200
442	296	3815	-20	-35	16	-60	176	180	563	43660	563	73280205
449	297	3789	-22	-32	51	-62	172	180	564	43714	564	73280208
451	300	3806	-22	-34	76	-62	172	180	565	43815	565	73280216
437	297	3779	-22	-32	41	-54	172	184	566	43869	566	73280253
459	285	3790	-21	-34	35	-54	172	184	567	43970	567	73280262
439	298	3785	-23	-31	-27	-57	169	179	568	44024	568	73280306
457	316	3827	-22	-34	4	-57	169	179	569	44125	569	73280313
445	310	3819	-21	-31	-18	-59	177	179	570	44179	570	73280318
430	278	3798	-15	-33	-26	-59	177	179	571	44280	571	73280323
449	303	3808	-18	-32	1	-56	166	178	572	44334	572	73280328
455	308	3781	-20	-33	-55	-56	166	178	573	44435	573	73280332
433	295	3811	-20	-31	-15	-55	171	179	574	44489	574	73280336
437	306	3804	-24	-32	8	-55	171	179	575	44590	575	73280352
447	299	3807	-21	-35	54	-57	169	185	576	44644	576	73280354
435	294	3792	-20	-32	30	-57	169	185	577	44745	577	73280356
439	285	3790	-21	-33	24	-59	173	183	578	44799	578	73280407
461	310	3800	-20	-33	78	-59	173	183	579	44900	579	73280418
454	298	3810	-19	-33	21	-55	169	185	580	44954	580	73280423
465	311	3794	-22	-31	23	-55	169	185	581	45055	581	73280433
449	293	3797	-18	-30	-12	-58	172	182	582	45109	582	73280436
431	292	3809	-19	-33	-7	-58	172	182	583	45210	583	73280446
424	287	3782	-17	-33	49	-53	173	185	584	45264	584	73280453
456	312	3791	-19	-33	-20	-53	173	185	585	45365	585	73280457
433	312	3813	-20	-33	36	-57	171	185	586	45419	586	73280458
442	309	3795	-20	-32	64	-57	171	185	587	45520	587	73280459
456	325	3794	-21	-34	-64	-60	170	184	588	45574	588	73280463
431	314	3790	-21	-31	39	-60	170	184	589	45676	589	73280467
435	301	3794	-22	-32	30	-58	174	178	590	45729	590	73280472
446	308	3799	-20	-33	69	-58	174	178	591	45830	591	73280474
437	311	3812	-22	-32	24	-58	170	186	592	45884	592	73280476
432	305	3789	-22	-29	49	-58	170	186	593	45985	593	73280480
435	304	3794	-20	-31	37	-59	167	181	594	46039	594	73280484
461	294	3824	-23	-32	2	-59	167	181	595	46140	595	73280490
425	297	3777	-20	-31	68	-57	169	187	596	46194	596	73280505
436	304	3799	-18	-33	32	-57	169	187	597	46295	597	73280521
473	307	3803	-23	-31	23	-62	178	176	598	46349	598	73280530
434	298	3802	-22	-31	30	-62	178	176	599	46450	599	73280535
419	299	3800	-21	-35	17	-61	171	181	600	46504	600	73280541
460	291	3829	-19	-33	13	-61	171	181	601	46606	601	73280553
448	299	3809	-23	-32	17	-58	174	184	602	46660	602	73280558
441	297	3781	-23	-30	9	-58	174	184	603	46761	603	73280564
446	290	3817	-21	-32	78	-55	169	181	604	46815	604	73280567
448	302	3797	-22	-34	-35	-55	169	181	605	46916	605	73280570
440	292	3809	-18	-34	20	-51	171	179	606	46970	606	73280577
448	296	3796	-22	-33	13	-51	171	179	607	47071	607	73280581
452	316	3787	-20	-33	16	-62	174	178	608	47125	608	73280583
426	294	3795	-20	-33	-12	-62	174	178	609	47226	609	73280589
442	293	3808	-19	-29	1	-58	174	188	610	47280	610	73280593
460	288	3801	-22	-30	-44	-58	174	188	611	47381	611	73280596
445	290	3796	-22	-32	28	-54	172	182	612	47435	612	73280602
432	296	3776	-23	-33	16	-54	172	182	613	47536	613	73280606
456	304	3807	-23	-31	-39	-58	168	184	614	47590	614	73280608
446	286	3796	-23	-32	9	-58	168	184	615	47691	615	73280615
434	302	3808	-17	-33	43	-58	172	184	616	47745	616	73280617
420	300	3816	-20	-29	-3	-58	172	184	617	47846	617	73280620
453	285	3797	-19	-31	42	-64	172	182	618	47900	618	73280626
440	305	3809	-21	-34	64	-64	172	182	619	48001	619	73280653
432	295	3814	-18	-31	-6	-58	174	184	620	48055	620	73280670
481	304	3791	-20	-33	50	-58	174	184	621	48156	621	73280673
445	292	3775	-21	-35	24	-54	170	180	622	48210	622	73280676
452	305	3805	-24	-35	15	-54	170	180	623	48311	623	73280681
441	302	3783	-24	-37	58	-54	172	182	624	48365	624	73280686
458	295	3802	-20	-34	26	-54	172	182	625	48466	625	73280689
428	312	3822	-19	-31	62	-61	171	183	626	48520	626	73280694
460	290	3825	-24	-33	47	-61	171	183	627	48621	627	73280715
444	284	3831	-23	-32	37	-58	180	176	628	48675	628	73280723
433	300	3803	-22	-34	51	-58	180	176	629	48776	629	73280737
463	300	3782	-23	-32	6	-55	175	181	630	48830	630	73280753
436	304	3789	-23	-32	88	-55	175	181	631	48931	631	73280783
463	302	3783	-22	-29	37	-60	180	182	632	48985	632	73280784
431	309	3792	-21	-31	41	-60	180	182	633	49087	633	73280808
455	288	3801	-24	-34	26	-54	172	182	634	49141	634	73280816
442	297	3818	-22	-35	33	-54	172	182	635	49242	635	73280819
458	309	3798	-18	-36	25	-57	173	187	636	49296	636	73280820
442	313	3801	-18	-32	-18	-57	173	187	637	49397	637	73280824
430	311	3779	-21	-30	-30	-53	175	183	638	49451	638	73280827
455	310	3801	-20	-32	68	-53	175	183	639	49552	639	73280830
452	307	3824	-20	-30	21	-62	174	188	640	49606	640	73280835
441	303	3810	-21	-33	9	-62	174	188	641	49707	641	73280857
440	292	3796	-21	-34	37	-62	172	178	642	49761	642	73280864
423	287	3782	-17	-30	57	-62	172	178	643	49862	643	73280865
441	297	3806	-21	-32	50	-61	173	183	644	49916	644	73280865
451	288	3798	-17	-34	15	-61	173	183	645	50017	645	73280866
447	289	3797	-21	-35	-5	-55	171	185	646	50071	646	73280868
441	305	3822	-22	-34	17	-55	171	185	647	50172	647	73280869
413	298	3789	-19	-31	27	-58	178	180	648	50226	648	73280870
450	294	3819	-21	-30	44	-58	178	180	649	50327	649	73280871
474	300	3806	-21	-32	-8	-61	169	183	650	50381	650	73280871
468	302	3805	-19	-32	-40	-61	169	183	651	50482	651	73280874
447	313	3815	-24	-32	36	-57	167	183	652	50536	652	73280874
465	288	3788	-22	-29	31	-57	167	183	653	50637	653	73280875
436	305	3820	-21	-30	40	-63	169	187	654	50691	654	73280876
450	308	3815	-23	-29	87	-63	169	187	655	50792	655	73280878
449	307	3791	-18	-31	28	-55	169	183	656	50846	656	73280879
432	281	3801	-20	-31	59	-55	169	183	657	50947	657	73280879
437	293	3829	-19	-32	9	-58	172	184	658	51001	658	73280881
435	295	3812	-22	-28	36	-58	172	184	659	51102	659	73280901
438	289	3803	-19	-31	70	-62	170	184	660	51156	660	73280925
462	292	3814	-22	-31	33	-62	170	184	661	51257	661	73280935
446	302	3804	-18	-32	34	-53	173	187	662	51311	662	73280938
443	305	3805	-21	-32	-23	-53	173	187	663	51412	663	73280964
445	311	3810	-20	-32	45	-61	173	179	664	51466	664	73280974
429	300	3807	-20	-32	46	-61	173	179	665	51567	665	73280979
439	297	3813	-20	-31	19	-58	168	190	666	51621	666	73280987
446	299	3810	-23	-34	34	-58	168	190	667	51722	667	73280990
451	284	3777	-19	-32	-11	-56	172	178	668	51776	668	73281007
428	314	3782	-20	-31	21	-56	172	178	669	51877	669	73281023
421	314	3781	-20	-32	32	-52	176	180	670	51931	670	73281025
451	297	3805	-21	-33	36	-52	176	180	671	52032	671	73281030
437	311	3815	-22	-32	56	-56	174	186	672	52086	672	73281055
424	310	3785	-22	-32	30	-56	174	186	673	52187	673	73281061
447	306	3819	-22	-33	27	-60	176	180	674	52241	674	73281098
447	305	3804	-21	-31	-6	-60	176	180	675	52342	675	73281103
458	294	3821	-22	-31	4	-55	169	185	676	52396	676	73281106
449	313	3794	-21	-30	1	-55	169	185	677	52497	677	73281135
446	289	3786	-20	-35	15	-56	176	184	678	52551	678	73281139
445	296	3780	-20	-33	46	-56	176	184	679	52652	679	73281153
421	297	3809	-20	-33	58	-57	173	183	680	52706	680	73281157
442	295	3804	-20	-32	28	-57	173	183	681	52807	681	73281180
431	304	3766	-24	-32	-5	-56	172	182	682	52861	682	73281185
427	305	3805	-21	-31	-20	-56	172	182	683	52962	683	73281186
440	305	3811	-19	-32	66	-59	173	175	684	53016	684	73281189
442	303	3803	-20	-31	13	-59	173	175	685	53117	685	73281197
454	310	3811	-22	-32	26	-57	169	187	686	53171	686	73281201
430	300	3787	-22	-35	21	-57	169	187	687	53272	687	73281205
447	316	3782	-19	-32	42	-57	171	183	688	53326	688	73281207
450	305	3803	-19	-30	78	-57	171	183	689	53427	689	73281214
449	315	3777	-23	-29	36	-56	176	188	690	53481	690	73281216
433	296	3798	-22	-33	-9	-56	176	188	691	53582	691	73281219
418	295	3789	-19	-32	9	-58	168	184	692	53636	692	73281222
424	307	3766	-21	-33	6	-58	168	184	693	53737	693	73281229
443	292	3802	-21	-33	53	-57	175	177	694	53791	694	73281237
445	292	3797	-22	-34	3	-57	175	177	695	53892	695	73281240
431	298	3808	-22	-34	-5	-62	168	184	696	53946	696	73281245
441	316	3801	-20	-33	20	-62	168	184	697	54047	697	73281248
443	307	3794	-22	-32	20	-60	176	182	698	54101	698	73281251
421	294	3812	-20	-35	26	-60	176	182	699	54202	699	73281266
442	298	3786	-25	-34	6	-60	174	176	700	54256	700	73281283
445	292	3795	-23	-32	-24	-60	174	176	701	54357	701	73281285
468	309	3797	-23	-33	29	-57	171	181	702	54411	702	73281308
448	297	3791	-23	-33	28	-57	171	181	703	54512	703	73281341
438	291	3808	-18	-32	-13	-61	173	181	704	54566	704	73281362
471	302	3795	-24	-33	3	-61	173	181	705	54667	705	73281365
459	310	3791	-23	-31	10	-57	173	185	706	54721	706	73281368
431	302	3800	-19	-30	31	-57	173	185	707	54822	707	73281372
414	305	3823	-20	-33	40	-58	174	184	708	54876	708	73281377
457	294	3796	-18	-33	71	-58	174	184	709	54977	709	73281379
449	302	3790	-15	-32	17	-57	175	183	710	55031	710	73281380
427	289	3780	-19	-31	22	-57	175	183	711	55133	711	73281383
434	298	3799	-23	-32	18	-59	169	187	712	55187	712	73281387
437	302	3792	-24	-34	-34	-59	169	187	713	55288	713	73281390
444	301	3812	-21	-32	10	-54	174	178	714	55342	714	73281391
436	290	3818	-18	-31	3	-54	174	178	715	55443	715	73281395
437	303	3788	-22	-33	42	-56	172	180	716	55497	716	73281400
453	292	3800	-22	-31	77	-56	172	180	717	55598	717	73281405
458	293	3795	-23	-33	42	-56	172	176	718	55652	718	73281407
454	293	3828	-22	-33	64	-56	172	176	719	55753	719	73281411
452	306	3787	-22	-32	44	-60	174	184	720	55807	720	73281417
453	295	3790	-22	-33	6	-60	174	184	721	55908	721	73281420
435	297	3801	-17	-33	19	-54	176	186	722	55962	722	73281423
449	318	3807	-19	-31	-6	-54	176	186	723	56063	723	73281425
438	312	3779	-21	-31	-15	-56	180	182	724	56117	724	73281427
451	288	3801	-22	-31	0	-56	180	182	725	56219	725	73281458
453	307	3788	-24	-30	-42	-57	169	183	726	56272	726	73281464
442	299	3807	-23	-33	47	-57	169	183	727	56373	727	73281466
433	294	3799	-20	-34	22	-58	176	184	728	56427	728	73281469
442	297	3793	-13	-35	29	-58	176	184	729	56528	729	73281473
466	308	3828	-20	-33	39	-57	175	179	730	56582	730	73281475
426	294	3793	-20	-35	-9	-57	175	179	731	56683	731	73281480
453	299	3815	-23	-31	71	-61	177	181	732	56737	732	73281487
441	279	3800	-23	-32	33	-61	177	181	733	56838	733	73281491
441	301	3791	-26	-32	22	-60	174	182	734	56892	734	73281504
444	290	3797	-22	-32	8	-60	174	182	735	56993	735	73281506
450	306	3784	-19	-32	4	-60	172	178	736	57047	736	73281508
439	288	3797	-16	-31	-10	-60	172	178	737	57148	737	73281515
447	299	3791	-22	-31	-8	-61	173	185	738	57202	738	73281522
456	299	3801	-26	-32	54	-61	173	185	739	57303	739	73281528
421	303	3801	-25	-30	-12	-60	174	180	740	57357	740	73281530
429	288	3829	-22	-31	-88	-60	174	180	741	57458	741	73281536
453	306	3830	-25	-34	34	-61	171	179	742	57512	742	73281539
455	302	3796	-24	-33	69	-61	171	179	743	57613	743	73281542
434	302	3802	-23	-34	24	-65	169	179	744	57667	744	73281545
434	309	3792	-25	-32	18	-65	169	179	745	57768	745	73281550
459	312	3799	-23	-32	-46	-62	170	182	746	57822	746	73281552
459	307	3817	-21	-30	14	-62	170	182	747	57923	747	73281553
442	305	3794	-22	-35	-16	-56	176	182	748	57977	748	73281557
447	302	3821	-21	-31	16	-56	176	182	749	58079	749	73281604
447	310	3785	-18	-32	45	-56	176	184	750	58133	750	73281613
450	311	3791	-17	-33	-25	-56	176	184	751	58235	751	73281617
461	299	3815	-20	-34	2	-57	171	183	752	58288	752	73281619
444	297	3816	-23	-35	-36	-57	171	183	753	58390	753	73281624
468	305	3810	-20	-32	27	-57	173	179	754	58444	754	73281627
454	284	3797	-24	-29	15	-57	173	179	755	58545	755	73281630
443	296	3792	-20	-33	48	-63	171	185	756	58599	756	73281634
454	304	3764	-16	-33	36	-63	171	185	757	58700	757	73281637
442	301	3819	-22	-32	-6	-55	173	181	758	58754	758	73281639
447	297	3783	-23	-30	10	-55	173	181	759	58855	759	73281646
437	292	3807	-20	-25	73	-58	176	180	760	58909	760	73281649
467	295	3808	-19	-33	22	-58	176	180	761	59010	761	73281649
444	303	3800	-19	-28	37	-59	173	187	762	59064	762	73281651
427	298	3804	-21	-29	26	-59	173	187	763	59165	763	73281658
463	293	3821	-24	-31	28	-56	172	180	764	59219	764	73281666
444	304	3812	-22	-31	35	-56	172	180	765	59320	765	73281669
433	294	3801	-21	-32	22	-56	174	182	766	59374	766	73281674
434	294	3809	-23	-33	-2	-56	174	182	767	59475	767	73281678
458	299	3801	-25	-33	-21	-59	179	185	768	59529	768	73281699
454	311	3799	-23	-31	48	-59	179	185	769	59630	769	73281705
461	298	3794	-23	-32	16	-61	175	181	770	59684	770	73281713
419	300	3807	-22	-31	-28	-61	175	181	771	59785	771	73281717
438	308	3818	-22	-31	69	-60	166	182	772	59839	772	73281720
443	308	3784	-24	-33	12	-60	166	182	773	59941	773	73281723
440	301	3799	-23	-33	33	-61	169	181	774	59994	774	73281726
443	308	3790	-20	-32	-9	-61	169	181	775	60096	775	73281730
439	304	3797	-20	-31	23	-61	175	177	776	60150	776	73281732
434	297	3807	-21	-31	26	-61	175	177	777	60251	777	73281736
431	300	3801	-23	-31	-6	-58	176	180	778	60305	778	73281738
440	302	3811	-22	-33	-11	-58	176	180	779	60407	779	73281740
436	287	3776	-20	-32	5	-53	177	183	780	60461	780	73281745
462	302	3790	-19	-31	39	-53	177	183	781	60562	781	73281753
440	311	3801	-22	-33	20	-52	172	180	782	60616	782	73281758
429	318	3807	-22	-33	31	-52	172	180	783	60717	783	73281759
449	294	3814	-21	-30	55	-64	176	182	784	60771	784	73281765
428	301	3795	-27	-32	35	-64	176	182	785	60872	785	73281766
448	299	3796	-24	-35	-10	-56	168	184	786	60926	786	73281768
421	298	3797	-20	-33	17	-56	168	184	787	61028	787	73281770
457	316	3792	-22	-32	37	-62	178	180	788	61082	788	73281773
423	302	3810	-23	-33	4	-62	178	180	789	61183	789	73281776
443	312	3826	-23	-32	56	-56	170	186	790	61237	790	73281780
438	296	3794	-19	-32	0	-56	170	186	791	61339	791	73281783
419	325	3787	-19	-29	51	-59	173	183	792	61392	792	73281786
448	300	3816	-24	-32	69	-59	173	183	793	61493	793	73281798
445	294	3804	-26	-34	39	-55	167	183	794	61547	794	73281801
427	307	3802	-23	-33	6	-55	167	183	795	61648	795	73281807
436	293	3812	-25	-32	41	-54	174	186	796	61702	796	73281813
448	294	3791	-21	-35	52	-54	174	186	797	61804	797	73281821
438	293	3805	-21	-33	-46	-55	175	177	798	61858	798	73281829
458	299	3826	-22	-32	-3	-55	175	177	799	61959	799	73281854
426	296	3802	-24	-29	4	-56	174	182	800	62013	800	73281872
426	304	3798	-22	-32	27	-56	174	182	801	62114	801	73281875
446	287	3799	-25	-32	49	-62	174	180	802	62168	802	73281880
439	292	3804	-24	-34	1	-62	174	180	803	62270	803	73281884
430	291	3796	-25	-32	32	-57	171	181	804	62324	804	73281887
454	299	3796	-21	-30	57	-57	171	181	805	62425	805	73281889
442	293	3781	-20	-30	-33	-57	169	185	806	62479	806	73281893
450	308	3818	-20	-33	6	-57	169	185	807	62580	807	73281896
441	297	3800	-22	-32	17	-60	174	176	808	62634	808	73281898
444	298	3812	-24	-33	45	-60	174	176	809	62735	809	73281900
476	303	3791	-25	-33	29	-56	172	180	810	62789	810	73281901
449	288	3811	-22	-33	13	-56	172	180	811	62890	811	73281901
447	295	3791	-19	-35	-11	-58	174	176	812	62944	812	73281906
453	311	3789	-22	-35	45	-58	174	176	813	63045	813	73281907
449	289	3803	-23	-33	22	-60	172	182	814	63099	814	73281917
447	304	3771	-20	-31	45	-60	172	182	815	63200	815	73281919
435	292	3771	-20	-35	33	-56	170	190	816	63254	816	73281924
444	291	3802	-20	-33	-10	-56	170	190	817	63356	817	73281930
446	291	3818	-20	-32	-56	-61	175	179	818	63409	818	73281933
429	311	3782	-19	-35	23	-61	175	179	819	63510	819	73281933
406	299	3798	-16	-32	21	-58	174	182	820	63564	820	73281934
451	308	3777	-20	-31	10	-58	174	182	821	63665	821	73281934
471	292	3817	-22	-33	28	-61	169	183	822	63719	822	73281935
452	290	3803	-23	-33	7	-61	169	183	823	63820	823	73281935
430	300	3820	-24	-35	-4	-67	177	183	824	63874	824	73281936
435	307	3801	-21	-33	54	-67	177	183	825	63975	825	73281937
428	296	3817	-20	-31	10	-54	164	188	826	64029	826	73281937
441	295	3776	-19	-31	43	-54	164	188	827	64130	827	73281938
452	283	3801	-23	-29	60	-60	172	184	828	64184	828	73281938
422	285	3800	-23	-32	-32	-60	172	184	829	64285	829	73281939
457	304	3797	-17	-32	50	-52	172	182	830	64339	830	73281939
444	302	3792	-23	-34	11	-52	172	182	831	64440	831	73281940
433	304	3786	-19	-36	35	-56	170	180	832	64494	832	73281940
445	303	3815	-23	-34	13	-56	170	180	833	64596	833	73281940
448	297	3814	-20	-31	16	-59	177	177	834	64649	834	73281941
431	293	3792	-25	-31	20	-59	177	177	835	64750	835	73281943
432	294	3780	-22	-33	1	-62	168	180	836	64804	836	73281943
441	304	3808	-22	-29	13	-62	168	180	837	64905	837	73281943
460	287	3803	-20	-29	89	-58	166	180	838	64959	838	73281944
435	296	3789	-19	-32	24	-58	166	180	839	65060	839	73281945
434	299	3814	-22	-34	48	-57	173	177	840	65114	840	73281946
457	296	3810	-20	-34	-10	-57	173	177	841	65216	841	73281946
427	291	3788	-22	-33	40	-64	172	184	842	65270	842	73281946
438	290	3807	-21	-32	29	-64	172	184	843	65371	843	73281947
447	291	3801	-21	-36	24	-60	174	182	844	65425	844	73281947
427	289	3802	-23	-35	51	-60	174	182	845	65526	845	73281948
437	308	3775	-20	-33	-27	-61	167	187	846	65580	846	73281948
452	301	3809	-16	-32	22	-61	167	187	847	65682	847	73281949
455	299	3810	-21	-33	42	-57	169	179	848	65735	848	73281949
456	306	3798	-26	-32	-26	-57	169	179	849	65836	849	73281949
437	305	3813	-17	-28	43	-58	170	178	850	65890	850	73281950
444	293	3806	-18	-33	-14	-58	170	178	851	65991	851	73281950
449	294	3823	-20	-34	28	-63	167	181	852	66045	852	73281951
427	305	3799	-24	-34	55	-63	167	181	853	66146	853	73281951
464	298	3797	-23	-33	-36	-60	172	180	854	66200	854	73281952
443	293	3823	-23	-32	19	-60	172	180	855	66301	855	73281952
431	299	3829	-23	-30	-1	-62	174	182	856	66355	856	73281952
461	286	3825	-23	-31	-15	-62	174	182	857	66457	857	73281953
445	304	3834	-23	-30	112	-55	171	181	858	66511	858	73281954
435	298	3809	-21	-32	23	-55	171	181	859	66612	859	73281954
457	296	3790	-20	-34	40	-61	171	177	860	66666	860	73281954
453	286	3788	-17	-32	6	-61	171	177	861	66767	861	73281955
439	304	3789	-22	-31	27	-61	171	183	862	66821	862	73281955
449	300	3794	-22	-33	75	-61	171	183	863	66922	863	73281956
419	288	3818	-21	-33	5	-61	177	183	864	66976	864	73281956
443	305	3814	-22	-32	60	-61	177	183	865	67077	865	73281956
443	304	3805	-21	-31	-5	-50	168	180	866	67131	866	73281957
440	304	3778	-20	-33	29	-50	168	180	867	67232	867	73281957
453	305	3799	-22	-33	43	-56	172	190	868	67286	868	73281958
458	294	3796	-21	-32	33	-56	172	190	869	67387	869	73281958
451	287	3791	-20	-34	55	-60	172	184	870	67441	870	73281959
458	296	3796	-19	-34	32	-60	172	184	871	67542	871	73281965
460	306	3803	-22	-34	-6	-59	173	185	872	67596	872	73281968
436	297	3800	-21	-35	24	-59	173	185	873	67697	873	73281969
427	297	3802	-19	-33	2	-53	177	181	874	67751	874	73281974
440	305	3801	-19	-29	1	-53	177	181	875	67852	875	73281979
441	299	3802	-17	-33	7	-56	170	182	876	67906	876	73281980
464	310	3785	-20	-32	52	-56	170	182	877	68007	877	73281983
425	298	3811	-19	-32	44	-57	171	189	878	68061	878	73281983
440	304	3783	-20	-32	41	-57	171	189	879	68162	879	73281984
429	308	3786	-22	-33	2	-58	172	180	880	68216	880	73281985
467	302	3803	-20	-31	-6	-58	172	180	881	68317	881	73281985
465	288	3778	-20	-32	11	-57	165	187	882	68371	882	73281985
440	312	3781	-21	-31	60	-57	165	187	883	68472	883	73281986
429	309	3792	-24	-34	-8	-60	174	180	884	68526	884	73281986
455	297	3804	-20	-32	47	-60	174	180	885	68627	885	73281987
427	308	3800	-18	-33	11	-59	169	185	886	68681	886	73281987
442	294	3778	-22	-32	56	-59	169	185	887	68782	887	73281988
449	312	3818	-22	-32	21	-61	171	185	888	68836	888	73281988
437	301	3788	-19	-34	-67	-61	171	185	889	68938	889	73281989
452	301	3792	-22	-30	47	-57	173	179	890	68991	890	73281989
454	294	3808	-20	-32	34	-57	173	179	891	69092	891	73281990
445	313	3783	-23	-31	30	-56	168	180	892	69146	892	73281991
441	315	3810	-22	-30	23	-56	168	180	893	69247	893	73281991
466	311	3808	-22	-33	-5	-62	170	188	894	69301	894	73281992
449	312	3785	-21	-33	72	-62	170	188	895	69402	895	73281994
442	303	3813	-22	-32	33	-56	172	178	896	69456	896	73281994
447	295	3797	-20	-34	21	-56	172	178	897	69557	897	73281994
463	304	3799	-22	-30	39	-57	171	185	898	69611	898	73281995
441	298	3790	-23	-31	23	-57	171	185	899	69712	899	73281995
435	292	3796	-18	-32	-3	-56	172	182	900	69766	900	73281995
473	283	3806	-20	-32	-39	-56	172	182	901	69867	901	73281996
433	291	3788	-21	-33	23	-59	167	187	902	69921	902	73281996
444	300	3789	-22	-32	45	-59	167	187	903	70022	903	73281996
454	312	3803	-22	-33	17	-58	172	182	904	70076	904	73281997
424	300	3812	-21	-30	-15	-58	172	182	905	70178	905	73281997
455	299	3803	-18	-30	18	-61	173	181	906	70232	906	73281998
449	300	3817	-17	-32	-3	-61	173	181	907	70333	907	73281998
434	299	3805	-21	-33	33	-49	173	181	908	70387	908	73282000
436	303	3797	-19	-35	39	-49	173	181	909	70488	909	73282001
446	294	3784	-17	-33	52	-58	174	182	910	70542	910	73282004
427	314	3815	-18	-32	48	-58	174	182	911	70643	911	73282006
432	302	3803	-22	-30	12	-59	169	183	912	70697	912	73282008
441	298	3781	-24	-35	61	-59	169	183	913	70798	913	73282014
443	303	3817	-24	-31	3	-58	174	184	914	70852	914	73282017
426	312	3788	-21	-33	53	-58	174	184	915	70953	915	73282020
434	295	3785	-25	-32	31	-58	174	176	916	71007	916	73282028
437	300	3807	-23	-31	-24	-58	174	176	917	71108	917	73282033
456	308	3821	-22	-32	50	-52	170	188	918	71162	918	73282038
435	295	3801	-23	-34	24	-52	170	188	919	71263	919	73282051
437	301	3787	-19	-33	21	-59	173	179	920	71317	920	73282051
415	302	3790	-21	-33	33	-59	173	179	921	71418	921	73282056
453	310	3816	-24	-30	-22	-58	174	182	922	71472	922	73282063
472	305	3790	-21	-30	4	-58	174	182	923	71573	923	73282065
432	303	3781	-19	-31	8	-54	172	186	924	71627	924	73282068
429	321	3797	-23	-29	72	-54	172	186	925	71728	925	73282073
433	282	3813	-21	-31	13	-57	175	183	926	71782	926	73282077
437	312	3818	-18	-32	94	-57	175	183	927	71883	927	73282095
451	306	3803	-20	-33	39	-55	169	183	928	71937	928	73282125
431	299	3783	-17	-31	8	-55	169	183	929	72038	929	73282130
444	313	3798	-19	-33	48	-59	173	181	930	72092	930	73282133
461	300	3774	-23	-34	34	-59	173	181	931	72193	931	73282136
434	301	3803	-22	-34	-32	-60	166	182	932	72247	932	73282140
443	289	3791	-22	-33	36	-60	166	182	933	72348	933	73282163
449	297	3824	-20	-33	10	-60	172	186	934	72402	934	73282167
435	297	3778	-19	-34	-15	-60	172	186	935	72503	935	73282170
433	297	3794	-22	-33	14	-59	167	181	936	72557	936	73282173
448	285	3826	-23	-35	-32	-59	167	181	937	72658	937	73282178
444	302	3797	-20	-34	42	-63	171	187	938	72712	938	73282194
443	285	3794	-22	-33	-25	-63	171	187	939	72813	939	73282200
446	291	3805	-18	-32	33	-59	179	181	940	72867	940	73282203
456	308	3807	-22	-30	29	-59	179	181	941	72968	941	73282206
443	303	3799	-24	-32	18	-59	171	181	942	73022	942	73282212
436	296	3801	-23	-34	79	-59	171	181	943	73123	943	73282215
422	305	3812	-23	-32	-11	-57	171	181	944	73177	944	73282218
452	320	3785	-22	-31	-8	-57	171	181	945	73278	945	73282223
454	311	3798	-24	-31	20	-54	174	180	946	73332	946	73282229
444	296	3780	-20	-29	-3	-54	174	180	947	73433	947	73282256
440	313	3808	-19	-34	29	-57	167	183	948	73487	948	73282263
460	294	3784	-25	-33	-31	-57	167	183	949	73588	949	73282293
453	298	3799	-21	-31	36	-56	174	180	950	73642	950	73282297
423	286	3780	-21	-34	33	-56	174	180	951	73743	951	73282303
425	309	3788	-21	-32	24	-61	177	181	952	73797	952	73282318
419	309	3795	-17	-32	42	-61	177	181	953	73898	953	73282339
422	310	3793	-21	-31	16	-54	168	178	954	73952	954	73282383
441	290	3810	-22	-34	32	-54	168	178	955	74053	955	73282398
449	282	3817	-22	-33	9	-51	173	179	956	74107	956	73282429
440	293	3791	-23	-33	-8	-51	173	179	957	74208	957	73282449
451	312	3805	-21	-33	51	-57	177	181	958	74262	958	73282451
460	302	3809	-22	-30	8	-57	177	181	959	74363	959	73282457
425	297	3794	-20	-33	-47	-60	176	178	960	74417	960	73282464
430	312	3817	-25	-32	73	-60	176	178	961	74518	961	73282466
440	306	3796	-25	-31	32	-55	173	179	962	74572	962	73282471
447	305	3795	-19	-31	64	-55	173	179	963	74673	963	73282479
431	295	3796	-20	-31	5	-57	167	191	964	74727	964	73282488
431	298	3807	-23	-31	14	-57	167	191	965	74828	965	73282491
437	315	3797	-20	-32	28	-58	176	180	966	74882	966	73282499
461	318	3831	-20	-33	-25	-58	176	180	967	74983	967	73282522
465	287	3805	-17	-34	15	-58	174	180	968	75037	968	73282533
457	294	3811	-23	-34	16	-58	174	180	969	75138	969	73282534
427	303	3790	-25	-33	-30	-59	175	187	970	75192	970	73282534
444	291	3795	-20	-33	39	-59	175	187	971	75293	971	73282534
472	297	3799	-20	-32	47	-62	178	182	972	75347	972	73282535
430	293	3782	-22	-30	23	-62	178	182	973	75448	973	73282535
441	306	3784	-17	-31	-12	-57	173	181	974	75502	974	73282535
436	315	3783	-17	-32	50	-57	173	181	975	75604	975	73282535
429	288	3787	-20	-32	22	-59	169	179	976	75657	976	73282536
449	301	3802	-21	-31	11	-59	169	179	977	75758	977	73282536
434	291	3791	-21	-33	31	-56	174	182	978	75812	978	73282536
448	293	3821	-17	-32	-11	-56	174	182	979	75913	979	73282536
473	299	3825	-20	-34	12	-60	174	182	980	75967	980	73282537
428	308	3790	-23	-31	23	-60	174	182	981	76068	981	73282537
437	299	3799	-19	-32	-65	-59	175	183	982	76122	982	73282537
453	304	3815	-16	-29	-2	-59	175	183	983	76223	983	73282538
451	295	3790	-15	-32	10	-57	169	187	984	76277	984	73282538
437	304	3779	-18	-32	-16	-57	169	187	985	76378	985	73282539
435	308	3803	-21	-32	51	-58	174	182	986	76432	986	73282539
442	299	3812	-21	-31	-1	-58	174	182	987	76533	987	73282540
457	291	3807	-19	-32	-6	-59	165	185	988	76587	988	73282540
444	294	3823	-21	-31	13	-59	165	185	989	76688	989	73282541
436	286	3820	-23	-33	18	-61	173	185	990	76742	990	73282541
432	286	3783	-22	-35	40	-61	173	185	991	76843	991	73282542
456	302	3809	-23	-31	16	-63	173	177	992	76897	992	73282544
447	301	3792	-23	-32	35	-63	173	177	993	76998	993	73282545
450	310	3815	-19	-32	24	-59	175	179	994	77052	994	73282545
439	299	3804	-17	-34	18	-59	175	179	995	77153	995	73282546
433	298	3818	-22	-32	37	-58	172	180	996	77207	996	73282546
449	299	3787	-18	-35	-4	-58	172	180	997	77308	997	73282547
443	298	3810	-17	-33	38	-57	171	185	998	77362	998	73282547
440	286	3816	-19	-29	10	-57	171	185	999	77463	999	73282547
442	302	3783	-19	-33	45	-52	170	190	1000	77517	1000	73282548
446	294	3816	-21	-30	73	-52	170	190	1001	77618	1001	73282549
432	305	3793	-22	-31	34	-60	170	172	1002	77672	1002	73282549
450	309	3800	-20	-33	11	-60	170	172	1003	77773	1003	73282549
439	289	3819	-24	-32	44	-57	175	185	1004	77827	1004	73282550
419	294	3784	-22	-31	-25	-57	175	185	1005	77928	1005	73282550
440	286	3805	-17	-32	55	-58	174	178	1006	77982	1006	73282551
448	307	3801	-20	-30	5	-58	174	178	1007	78083	1007	73282551
449	277	3800	-18	-32	33	-59	173	181	1008	78137	1008	73282553
444	292	3772	-20	-34	22	-59	173	181	1009	78238	1009	73282553
437	295	3815	-24	-33	8	-57	167	187	1010	78292	1010	73282553
427	284	3782	-23	-31	0	-57	167	187	1011	78393	1011	73282554
442	300	3834	-20	-32	9	-59	175	185	1012	78447	1012	73282554
436	293	3794	-23	-32	58	-59	175	185	1013	78548	1013	73282555
459	309	3790	-21	-34	-20	-55	171	183	1014	78602	1014	73282555
440	287	3785	-23	-35	-20	-55	171	183	1015	78703	1015	73282556
442	296	3775	-21	-34	-19	-54	176	184	1016	78757	1016	73282556
446	296	3789	-21	-35	-21	-54	176	184	1017	78858	1017	73282557
447	277	3804	-18	-34	37	-56	174	180	1018	78912	1018	73282557
452	281	3783	-21	-33	-22	-56	174	180	1019	79013	1019	73282558
435	289	3801	-20	-30	-10	-56	166	182	1020	79067	1020	73282558
459	296	3809	-18	-34	9	-56	166	182	1021	79168	1021	73282559
437	296	3787	-17	-34	-28	-59	169	179	1022	79222	1022	73282560
442	297	3792	-21	-32	61	-59	169	179	1023	79323	1023	73282561
429	304	3809	-19	-33	3	-60	172	184	1024	79377	1024	73282561
461	299	3816	-22	-31	-26	-60	172	184	1025	79478	1025	73282562
457	304	3810	-19	-31	-15	-55	179	181	1026	79532	1026	73282562
433	286	3807	-23	-34	-2	-55	179	181	1027	79633	1027	73282562
438	282	3801	-24	-32	-1	-59	175	179	1028	79687	1028	73282563
455	307	3817	-22	-31	7	-59	175	179	1029	79788	1029	73282563
447	289	3816	-18	-31	-17	-51	171	183	1030	79842	1030	73282564
440	307	3790	-18	-33	3	-51	171	183	1031	79943	1031	73282564
453	296	3809	-24	-31	20	-57	173	179	1032	79997	1032	73282565
453	305	3791	-16	-31	35	-57	173	179	1033	80098	1033	73282565
444	301	3818	-24	-32	35	-56	168	182	1034	80152	1034	73282565
440	297	3782	-24	-31	-14	-56	168	182	1035	80253	1035	73282566
458	313	3796	-21	-35	27	-58	174	180	1036	80307	1036	73282566
448	301	3794	-18	-34	8	-58	174	180	1037	80408	1037	73282567
434	302	3804	-19	-30	17	-60	168	178	1038	80462	1038	73282567
446	298	3801	-22	-34	59	-60	168	178	1039	80563	1039	73282568
441	307	3773	-19	-34	-20	-59	175	185	1040	80617	1040	73282568
451	306	3801	-22	-32	55	-59	175	185	1041	80718	1041	73282568
424	303	3794	-19	-30	-13	-61	171	181	1042	80772	1042	73282569
440	290	3786	-17	-33	64	-61	171	181	1043	80873	1043	73282569
463	303	3794	-16	-34	61	-62	174	180	1044	80927	1044	73282570
452	314	3789	-17	-33	12	-62	174	180	1045	81028	1045	73282570
435	304	3798	-20	-33	50	-53	169	187	1046	81082	1046	73282570
432	305	3793	-18	-32	-15	-53	169	187	1047	81183	1047	73282571
443	298	3787	-20	-35	32	-58	172	190	1048	81237	1048	73282571
433	284	3764	-19	-30	-7	-58	172	190	1049	81338	1049	73282572
437	291	3802	-18	-31	-18	-57	173	179	1050	81392	1050	73282572
453	294	3791	-18	-30	60	-57	173	179	1051	81493	1051	73282572
432	279	3808	-19	-32	10	-55	175	183	1052	81547	1052	73282573
448	294	3804	-19	-31	-8	-55	175	183	1053	81649	1053	73282573
454	295	3792	-20	-32	53	-56	176	184	1054	81702	1054	73282574
438	294	3792	-20	-34	46	-56	176	184	1055	81803	1055	73282574
441	304	3800	-22	-36	11	-60	170	184	1056	81858	1056	73282574
436	305	3806	-21	-34	-29	-60	170	184	1057	81959	1057	73282575
440	296	3805	-22	-33	25	-56	166	184	1058	82013	1058	73282575
454	288	3814	-25	-34	-9	-56	166	184	1059	82114	1059	73282575
426	294	3789	-21	-35	-33	-57	177	179	1060	82168	1060	73282577
453	315	3788	-19	-33	70	-57	177	179	1061	82270	1061	73282578
444	292	3789	-15	-34	-23	-60	170	180	1062	82324	1062	73282578
452	268	3793	-20	-31	0	-60	170	180	1063	82425	1063	73282579
455	298	3804	-25	-30	37	-56	168	178	1064	82479	1064	73282579
438	292	3813	-23	-31	1	-56	168	178	1065	82580	1065	73282579
450	305	3821	-18	-32	23	-57	171	189	1066	82634	1066	73282580
462	317	3812	-18	-30	-27	-57	171	189	1067	82735	1067	73282580
439	308	3794	-24	-28	37	-64	176	188	1068	82789	1068	73282580
444	307	3788	-21	-30	19	-64	176	188	1069	82890	1069	73282581
458	298	3800	-24	-30	-9	-57	173	183	1070	82944	1070	73282581
441	299	3793	-22	-34	77	-57	173	183	1071	83045	1071	73282581
442	303	3796	-21	-33	-33	-57	171	183	1072	83099	1072	73282582
448	298	3795	-18	-29	17	-57	171	183	1073	83200	1073	73282583
448	310	3795	-17	-29	39	-61	167	183	1074	83254	1074	73282583
445	293	3817	-17	-30	32	-61	167	183	1075	83355	1075	73282584
454	282	3818	-17	-30	56	-54	166	186	1076	83409	1076	73282584
435	299	3792	-21	-34	3	-54	166	186	1077	83510	1077	73282584
443	305	3814	-20	-35	37	-59	169	179	1078	83564	1078	73282584
448	301	3811	-21	-34	93	-59	169	179	1079	83666	1079	73282585
441	295	3789	-22	-30	5	-50	174	182	1080	83720	1080	73282585
462	307	3792	-24	-31	71	-50	174	182	1081	83821	1081	73282585
449	300	3786	-23	-34	24	-60	170	180	1082	83875	1082	73282585
419	298	3786	-22	-33	0	-60	170	180	1083	83976	1083	73282595
446	309	3798	-20	-32	15	-59	177	181	1084	84030	1084	73282595
448	305	3797	-21	-31	5	-59	177	181	1085	84131	1085	73282597
429	307	3819	-20	-35	59	-61	173	183	1086	84185	1086	73282598
439	307	3814	-21	-32	-8	-61	173	183	1087	84286	1087	73282598
463	291	3798	-22	-30	14	-63	175	179	1088	84340	1088	73282616
470	291	3778	-22	-33	68	-63	175	179	1089	84441	1089	73282616
440	292	3786	-21	-33	12	-61	177	181	1090	84495	1090	73282618
440	285	3770	-19	-33	79	-61	177	181	1091	84596	1091	73282619
447	300	3839	-18	-32	0	-57	169	185	1092	84650	1092	73282620
451	307	3809	-19	-32	11	-57	169	185	1093	84751	1093	73282623
459	309	3789	-20	-33	37	-55	175	181	1094	84805	1094	73282624
440	304	3779	-19	-33	4	-55	175	181	1095	84906	1095	73282626
438	306	3794	-18	-31	49	-59	165	183	1096	84960	1096	73282641
423	304	3792	-22	-33	-12	-59	165	183	1097	85061	1097	73282641
454	307	3823	-20	-33	-36	-56	172	182	1098	85115	1098	73282644
456	307	3798	-24	-28	26	-56	172	182	1099	85216	1099	73282646
449	300	3811	-21	-28	18	-62	172	182	1100	85270	1100	73282647
439	280	3789	-20	-33	22	-62	172	182	1101	85371	1101	73282665
443	296	3807	-21	-33	-6	-55	175	181	1102	85425	1102	73282665
436	306	3808	-23	-33	32	-55	175	181	1103	85526	1103	73282669
445	295	3776	-19	-33	24	-56	176	180	1104	85580	1104	73282670
439	288	3811	-18	-33	57	-56	176	180	1105	85681	1105	73282689
448	289	3813	-18	-33	-12	-57	171	187	1106	85735	1106	73282691
455	302	3826	-19	-30	21	-57	171	187	1107	85836	1107	73282691
461	309	3823	-19	-30	74	-58	172	184	1108	85890	1108	73282693
454	294	3816	-21	-33	18	-58	172	184	1109	85991	1109	73282694
433	315	3798	-22	-30	11	-58	170	180	1110	86045	1110	73282717
458	310	3804	-22	-34	34	-58	170	180	1111	86146	1111	73282717
440	321	3785	-23	-33	16	-57	171	183	1112	86200	1112	73282719
442	305	3784	-26	-32	-3	-57	171	183	1113	86301	1113	73282721
452	303	3786	-22	-31	14	-56	170	180	1114	86355	1114	73282721
466	305	3796	-20	-31	-3	-56	170	180	1115	86456	1115	73282744
458	291	3797	-20	-30	-47	-60	170	184	1116	86510	1116	73282745
438	295	3808	-20	-33	14	-60	170	184	1117	86611	1117	73282745
430	302	3817	-24	-31	-26	-56	174	178	1118	86665	1118	73282748
428	301	3796	-20	-31	4	-56	174	178	1119	86766	1119	73282749
429	300	3812	-18	-31	22	-60	178	178	1120	86820	1120	73282767
450	306	3800	-18	-33	-39	-60	178	178	1121	86921	1121	73282767
448	305	3812	-21	-30	13	-55	175	183	1122	86975	1122	73282770
456	300	3791	-19	-28	-6	-55	175	183	1123	87076	1123	73282772
441	297	3788	-22	-32	35	-60	176	186	1124	87130	1124	73282773
450	294	3781	-21	-33	-8	-60	176	186	1125	87231	1125	73282792
447	306	3786	-19	-32	40	-62	172	180	1126	87285	1126	73282794
438	283	3805	-22	-35	21	-62	172	180	1127	87386	1127	73282794
456	305	3795	-22	-34	33	-54	172	184	1128	87440	1128	73282796
437	296	3809	-23	-32	20	-54	172	184	1129	87541	1129	73282796
448	305	3788	-19	-34	8	-57	173	177	1130	87595	1130	73282816
438	294	3771	-18	-34	61	-57	173	177	1131	87696	1131	73282816
443	300	3777	-17	-31	9	-57	175	183	1132	87750	1132	73282819
425	294	3821	-18	-34	-6	-57	175	183	1133	87851	1133	73282820
418	307	3801	-22	-32	70	-63	173	177	1134	87905	1134	73282820
435	295	3781	-20	-31	42	-63	173	177	1135	88006	1135	73282841
433	289	3789	-21	-29	71	-59	175	183	1136	88060	1136	73282841
433	309	3803	-22	-34	22	-59	175	183	1137	88161	1137	73282844
431	299	3781	-20	-29	-3	-56	164	182	1138	88215	1138	73282844
446	299	3819	-19	-33	8	-56	164	182	1139	88316	1139	73282847
467	303	3822	-17	-34	-39	-57	179	179	1140	88370	1140	73282866
461	293	3796	-18	-33	82	-57	179	179	1141	88471	1141	73282866
447	298	3780	-20	-31	74	-57	171	183	1142	88525	1142	73282869
450	307	3805	-24	-32	22	-57	171	183	1143	88626	1143	73282870
463	300	3804	-22	-34	30	-63	173	181	1144	88680	1144	73282872
450	301	3803	-19	-31	37	-63	173	181	1145	88781	1145	73282891
460	306	3812	-19	-34	73	-59	171	183	1146	88835	1146	73282891
437	300	3791	-20	-34	0	-59	171	183	1147	88936	1147	73282894
456	295	3817	-18	-30	-1	-56	170	186	1148	88990	1148	73282895
470	301	3795	-19	-30	3	-56	170	186	1149	89092	1149	73282897
450	303	3796	-22	-29	30	-61	173	181	1150	89145	1150	73282916
442	305	3796	-21	-33	7	-61	173	181	1151	89246	1151	73282923
427	304	3790	-22	-35	63	-57	169	185	1152	89300	1152	73282923
432	308	3816	-18	-32	37	-57	169	185	1153	89401	1153	73282924
454	304	3794	-19	-34	32	-58	174	180	1154	89455	1154	73282924
435	301	3774	-21	-33	65	-58	174	180	1155	89556	1155	73282924
454	304	3807	-20	-32	-1	-60	174	182	1156	89610	1156	73282925
456	313	3801	-24	-32	49	-60	174	182	1157	89711	1157	73282941
437	306	3818	-19	-35	-1	-60	166	186	1158	89765	1158	73282941
446	305	3794	-18	-32	56	-60	166	186	1159	89866	1159	73282943
465	297	3809	-21	-34	-20	-57	175	179	1160	89920	1160	73282951
456	303	3803	-17	-31	42	-57	175	179	1161	90021	1161	73282951
455	295	3804	-17	-34	25	-57	169	181	1162	90075	1162	73282964
444	292	3818	-19	-30	13	-57	169	181	1163	90176	1163	73282965
418	319	3800	-20	-33	95	-56	174	184	1164	90230	1164	73282973
455	300	3810	-22	-31	26	-56	174	184	1165	90331	1165	73282973
462	308	3808	-21	-31	-16	-56	172	182	1166	90385	1166	73282974
449	299	3798	-23	-34	58	-56	172	182	1167	90486	1167	73282989
442	290	3822	-22	-32	13	-58	170	186	1168	90540	1168	73282990
459	296	3792	-20	-33	12	-58	170	186	1169	90641	1169	73282997
469	312	3802	-24	-34	38	-56	174	178	1170	90695	1170	73282998
463	287	3808	-20	-32	5	-56	174	178	1171	90796	1171	73283000
437	285	3775	-18	-33	-3	-55	173	187	1172	90850	1172	73283014
428	302	3796	-23	-30	51	-55	173	187	1173	90952	1173	73283015
445	302	3820	-18	-29	24	-61	173	179	1174	91005	1174	73283022
437	307	3790	-20	-32	24	-61	173	179	1175	91106	1175	73283022
428	304	3799	-21	-31	46	-61	171	179	1176	91160	1176	73283024
425	305	3782	-19	-33	4	-61	171	179	1177	91261	1177	73283039
426	303	3792	-22	-33	-9	-58	168	184	1178	91315	1178	73283040
454	292	3813	-24	-33	3	-58	168	184	1179	91416	1179	73283044
460	289	3816	-23	-34	14	-57	173	181	1180	91470	1180	73283045
486	297	3839	-22	-32	-8	-57	173	181	1181	91571	1181	73283048
461	313	3806	-21	-27	94	-62	172	182	1182	91625	1182	73283064
435	306	3802	-22	-33	-56	-62	172	182	1183	91726	1183	73283065
422	292	3790	-20	-32	49	-56	174	184	1184	91780	1184	73283069
446	295	3807	-19	-31	15	-56	174	184	1185	91881	1185	73283070
449	306	3822	-21	-32	2	-65	169	183	1186	91935	1186	73283073
452	300	3800	-24	-31	49	-65	169	183	1187	92036	1187	73283089
454	295	3796	-19	-34	-24	-62	170	184	1188	92090	1188	73283090
455	306	3786	-18	-33	25	-62	170	184	1189	92191	1189	73283094
449	292	3784	-19	-32	26	-61	177	181	1190	92245	1190	73283095
448	299	3774	-21	-31	11	-61	177	181	1191	92346	1191	73283096
428	300	3804	-17	-32	23	-60	164	184	1192	92400	1192	73283114
446	311	3806	-17	-34	28	-60	164	184	1193	92501	1193	73283115
450	310	3809	-19	-30	24	-57	173	183	1194	92555	1194	73283118
461	293	3817	-21	-32	34	-57	173	183	1195	92656	1195	73283119
444	305	3820	-20	-37	29	-61	171	185	1196	92710	1196	73283139
433	312	3803	-18	-33	29	-61	171	185	1197	92811	1197	73283139
443	294	3803	-22	-35	-10	-59	175	183	1198	92865	1198	73283142
439	282	3793	-22	-32	69	-59	175	183	1199	92966	1199	73283143
440	294	3785	-19	-35	5	-53	175	183	1200	93020	1200	73283144
437	305	3799	-18	-32	19	-53	175	183	1201	93121	1201	73283165
448	310	3803	-22	-30	25	-54	174	178	1202	93175	1202	73283168
449	305	3804	-21	-29	25	-54	174	178	1203	93276	1203	73283169
455	304	3795	-17	-33	-5	-56	176	180	1204	93330	1204	73283169
446	299	3809	-20	-33	15	-56	176	180	1205	93431	1205	73283170
457	298	3796	-23	-35	-4	-60	172	184	1206	93485	1206	73283189
459	297	3813	-18	-33	49	-60	172	184	1207	93586	1207	73283190
451	302	3808	-21	-35	-43	-53	175	181	1208	93640	1208	73283192
446	311	3789	-19	-33	52	-53	175	181	1209	93741	1209	73283193
432	295	3784	-19	-33	19	-59	177	183	1210	93795	1210	73283194
444	295	3788	-20	-33	7	-59	177	183	1211	93896	1211	73283242
441	282	3818	-23	-31	10	-54	172	182	1212	93950	1212	73283244
438	285	3811	-20	-31	6	-54	172	182	1213	94051	1213	73283245
429	297	3784	-19	-30	24	-58	170	186	1214	94105	1214	73283246
425	300	3794	-19	-31	27	-58	170	186	1215	94206	1215	73283246
452	306	3815	-20	-31	25	-61	173	185	1216	94260	1216	73283249
427	292	3808	-18	-36	-24	-61	173	185	1217	94361	1217	73283250
438	294	3829	-20	-33	-20	-57	173	181	1218	94415	1218	73283252
458	309	3820	-20	-31	-11	-57	173	181	1219	94516	1219	73283264
456	302	3820	-18	-34	-15	-60	170	182	1220	94570	1220	73283264
457	296	3785	-22	-34	0	-60	170	182	1221	94671	1221	73283268
451	290	3802	-21	-34	-5	-61	167	183	1222	94725	1222	73283268
457	299	3792	-20	-31	18	-61	167	183	1223	94826	1223	73283270
434	305	3818	-19	-33	28	-52	168	186	1224	94880	1224	73283272
444	297	3796	-23	-35	55	-52	168	186	1225	94981	1225	73283272
433	316	3799	-22	-32	38	-58	172	178	1226	95035	1226	73283276
434	310	3821	-23	-33	36	-58	172	178	1227	95136	1227	73283277
457	296	3801	-16	-33	-22	-60	170	182	1228	95190	1228	73283292
443	298	3772	-20	-32	74	-60	170	182	1229	95291	1229	73283292
434	302	3805	-20	-31	61	-59	171	183	1230	95345	1230	73283292
446	308	3817	-20	-33	-17	-59	171	183	1231	95446	1231	73283313
443	308	3795	-20	-33	64	-62	166	182	1232	95500	1232	73283325
442	307	3800	-17	-36	44	-62	166	182	1233	95601	1233	73283327
447	297	3780	-17	-33	64	-58	170	180	1234	95655	1234	73283327
438	284	3791	-24	-32	2	-58	170	180	1235	95756	1235	73283327
436	309	3795	-21	-32	-5	-59	177	177	1236	95810	1236	73283328
440	300	3810	-21	-32	27	-59	177	177	1237	95911	1237	73283328
434	309	3775	-21	-32	17	-60	170	186	1238	95965	1238	73283362
460	296	3797	-24	-34	-25	-60	170	186	1239	96066	1239	73283363
458	305	3810	-23	-32	-12	-54	166	182	1240	96120	1240	73283364
463	299	3796	-17	-32	30	-54	166	182	1241	96221	1241	73283366
437	299	3769	-18	-30	-5	-62	172	178	1242	96275	1242	73283366
439	291	3792	-19	-32	-20	-62	172	178	1243	96376	1243	73283369
446	300	3807	-21	-31	39	-58	170	180	1244	96430	1244	73283369
455	315	3817	-18	-31	-6	-58	170	180	1245	96531	1245	73283372
439	293	3798	-22	-32	-19	-58	176	184	1246	96585	1246	73283373
444	304	3805	-21	-29	47	-58	176	184	1247	96686	1247	73283373
454	311	3822	-22	-31	48	-61	175	189	1248	96740	1248	73283409
464	311	3799	-21	-33	57	-61	175	189	1249	96841	1249	73283410
450	297	3814	-20	-32	42	-62	170	184	1250	96895	1250	73283412
458	312	3793	-22	-33	1	-62	170	184	1251	96996	1251	73283413
458	296	3803	-22	-33	69	-55	173	179	1252	97050	1252	73283413
440	296	3788	-21	-32	27	-55	173	179	1253	97151	1253	73283417
435	312	3810	-20	-32	36	-58	170	180	1254	97205	1254	73283417
445	279	3802	-21	-30	10	-58	170	180	1255	97306	1255	73283420
440	298	3823	-21	-33	-26	-61	175	177	1256	97360	1256	73283421
435	295	3791	-19	-35	36	-61	175	177	1257	97461	1257	73283421
457	315	3820	-23	-31	11	-54	172	186	1258	97515	1258	73283458
448	308	3802	-23	-30	29	-54	172	186	1259	97616	1259	73283458
462	310	3808	-23	-35	32	-61	175	183	1260	97670	1260	73283463
456	303	3815	-24	-31	0	-61	175	183	1261	97771	1261	73283463
440	301	3788	-23	-33	-24	-62	178	182	1262	97825	1262	73283464
418	286	3805	-20	-33	-14	-62	178	182	1263	97926	1263	73283465
426	287	3788	-24	-32	-8	-55	171	177	1264	97980	1264	73283465
442	308	3783	-23	-33	6	-55	171	177	1265	98081	1265	73283469
427	298	3790	-20	-34	-13	-60	172	180	1266	98135	1266	73283469
424	292	3810	-23	-32	36	-60	172	180	1267	98236	1267	73283483
423	291	3801	-19	-30	-6	-60	172	184	1268	98290	1268	73283487
427	286	3805	-20	-31	41	-60	172	184	1269	98391	1269	73283487
444	277	3808	-22	-32	62	-57	177	179	1270	98445	1270	73283494
459	281	3784	-22	-33	5	-57	177	179	1271	98546	1271	73283533
460	289	3811	-23	-32	62	-63	165	177	1272	98600	1272	73283535
435	303	3779	-18	-33	2	-63	165	177	1273	98701	1273	73283536
436	296	3786	-21	-32	2	-59	173	189	1274	98755	1274	73283536
438	289	3806	-24	-31	0	-59	173	189	1275	98856	1275	73283537
452	293	3812	-24	-34	-52	-56	170	182	1276	98910	1276	73283539
471	308	3820	-15	-32	5	-56	170	182	1277	99011	1277	73283540
449	296	3797	-16	-34	5	-58	164	184	1278	99065	1278	73283540
453	292	3792	-20	-33	-12	-58	164	184	1279	99167	1279	73283543
442	292	3779	-17	-29	2	-59	175	181	1280	99220	1280	73283545
456	302	3782	-20	-31	24	-59	175	181	1281	99321	1281	73283546
443	293	3779	-20	-33	28	-57	171	179	1282	99375	1282	73283547
422	307	3810	-18	-34	-31	-57	171	179	1283	99476	1283	73283586
460	313	3793	-24	-35	20	-57	167	183	1284	99530	1284	73283589
454	301	3779	-21	-34	12	-57	167	183	1285	99631	1285	73283590
453	317	3792	-24	-30	7	-60	178	182	1286	99685	1286	73283590
431	300	3808	-21	-32	39	-60	178	182	1287	99786	1287	73283591
430	304	3799	-18	-31	3	-58	170	184	1288	99840	1288	73283594
468	310	3817	-20	-32	-10	-58	170	184	1289	99941	1289	73283594
451	293	3804	-20	-32	55	-58	172	180	1290	99995	1290	73283594
421	305	3804	-17	-31	8	-58	172	180	1291	100096	1291	73283594
446	284	3808	-19	-32	15	-60	168	180	1292	100150	1292	73283608
440	294	3787	-22	-31	2	-60	168	180	1293	100251	1293	73283608
460	294	3801	-20	-29	6	-55	171	181	1294	100305	1294	73283610
442	305	3787	-19	-34	38	-55	171	181	1295	100406	1295	73283617
428	306	3794	-20	-34	51	-64	172	182	1296	100460	1296	73283617
464	303	3807	-24	-33	30	-64	172	182	1297	100561	1297	73283635
453	310	3803	-17	-31	-5	-65	169	187	1298	100615	1298	73283636
427	291	3822	-21	-31	-10	-65	169	187	1299	100716	1299	73283638
432	303	3808	-22	-32	85	-55	173	183	1300	100770	1300	73283640
463	296	3810	-23	-31	-10	-55	173	183	1301	100871	1301	73283641
441	299	3778	-23	-32	47	-57	181	185	1302	100925	1302	73283658
431	285	3785	-18	-33	59	-57	181	185	1303	101026	1303	73283658
446	299	3812	-20	-31	-1	-59	175	181	1304	101080	1304	73283660
451	306	3812	-22	-32	7	-59	175	181	1305	101181	1305	73283665
458	308	3797	-19	-32	-32	-58	172	180	1306	101235	1306	73283665
469	283	3792	-19	-31	41	-58	172	180	1307	101337	1307	73283683
461	301	3815	-18	-30	15	-54	166	184	1308	101391	1308	73283683
456	310	3790	-19	-30	0	-54	166	184	1309	101492	1309	73283685
441	307	3805	-19	-32	32	-57	173	179	1310	101546	1310	73283690
462	320	3806	-21	-32	9	-57	173	179	1311	101647	1311	73283690
450	308	3809	-19	-31	18	-53	171	185	1312	101701	1312	73283730
441	308	3821	-22	-33	43	-53	171	185	1313	101803	1313	73283737
426	304	3811	-18	-34	-21	-52	174	188	1314	101856	1314	73283740
444	301	3798	-23	-30	42	-52	174	188	1315	101957	1315	73283745
444	310	3804	-23	-31	-51	-61	171	185	1316	102011	1316	73283748
458	303	3798	-19	-32	32	-61	171	185	1317	102112	1317	73283755
441	285	3788	-19	-32	36	-61	171	187	1318	102166	1318	73283757
441	296	3804	-21	-33	54	-61	171	187	1319	102267	1319	73283762
446	299	3799	-19	-32	48	-58	172	178	1320	102321	1320	73283764
457	289	3798	-18	-34	-35	-58	172	178	1321	102422	1321	73283765
447	301	3814	-19	-33	-24	-58	172	182	1322	102476	1322	73283766
429	308	3796	-17	-35	19	-58	172	182	1323	102577	1323	73283766
449	300	3824	-21	-36	10	-56	168	182	1324	102631	1324	73283766
472	300	3815	-19	-34	44	-56	168	182	1325	102732	1325	73283767
453	298	3776	-24	-33	40	-57	175	183	1326	102786	1326	73283767
427	287	3806	-23	-34	23	-57	175	183	1327	102887	1327	73283785
451	300	3804	-23	-34	25	-58	170	182	1328	102941	1328	73283786
448	303	3792	-24	-32	24	-58	170	182	1329	103042	1329	73283788
441	293	3809	-21	-32	11	-60	166	184	1330	103096	1330	73283789
441	295	3781	-21	-34	23	-60	166	184	1331	103197	1331	73283791
429	274	3810	-22	-33	21	-57	169	177	1332	103251	1332	73283810
432	297	3804	-19	-33	13	-57	169	177	1333	103352	1333	73283811
444	302	3808	-19	-34	27	-54	170	184	1334	103406	1334	73283813
450	290	3814	-20	-33	65	-54	170	184	1335	103507	1335	73283813
459	304	3798	-19	-35	-3	-58	170	178	1336	103561	1336	73283816
443	302	3803	-21	-34	1	-58	170	178	1337	103662	1337	73283833
450	311	3806	-24	-33	23	-60	174	186	1338	103716	1338	73283850
458	293	3815	-25	-31	30	-60	174	186	1339	103817	1339	73283851
436	286	3795	-21	-35	37	-59	171	181	1340	103871	1340	73283851
442	293	3798	-20	-34	-12	-59	171	181	1341	103972	1341	73283853
446	302	3810	-22	-32	-5	-60	172	178	1342	104026	1342	73283886
449	305	3798	-25	-35	83	-60	172	178	1343	104127	1343	73283886
439	303	3788	-22	-32	-26	-57	169	185	1344	104181	1344	73283890
430	307	3794	-21	-35	59	-57	169	185	1345	104282	1345	73283890
452	308	3794	-20	-36	42	-56	170	184	1346	104336	1346	73283893
443	299	3783	-19	-33	44	-56	170	184	1347	104437	1347	73283894
435	299	3797	-19	-31	53	-59	173	183	1348	104491	1348	73283894
449	307	3822	-19	-31	35	-59	173	183	1349	104592	1349	73283908
463	305	3811	-22	-32	25	-62	168	182	1350	104646	1350	73283909
473	293	3766	-23	-34	19	-62	168	182	1351	104747	1351	73283912
449	304	3803	-19	-32	3	-57	175	183	1352	104801	1352	73283914
445	301	3802	-22	-32	-14	-57	175	183	1353	104902	1353	73283915
440	289	3800	-23	-33	10	-61	171	181	1354	104956	1354	73283916
452	296	3791	-24	-32	62	-61	171	181	1355	105057	1355	73283916
445	297	3811	-22	-33	79	-59	175	175	1356	105111	1356	73283919
419	292	3793	-17	-34	21	-59	175	175	1357	105212	1357	73283920
421	289	3808	-20	-31	59	-60	172	180	1358	105266	1358	73283922
466	302	3814	-21	-32	-40	-60	172	180	1359	105368	1359	73283933
435	290	3774	-20	-32	35	-57	173	183	1360	105422	1360	73283934
442	294	3816	-19	-33	-41	-57	173	183	1361	105523	1361	73283944
454	300	3795	-26	-31	10	-61	173	183	1362	105577	1362	73283944
431	290	3797	-21	-32	59	-61	173	183	1363	105678	1363	73283988
442	288	3776	-20	-34	7	-55	169	185	1364	105732	1364	73283995
440	306	3812	-22	-30	34	-55	169	185	1365	105833	1365	73283997
456	308	3806	-20	-34	35	-63	177	183	1366	105887	1366	73283999
451	301	3800	-23	-32	33	-63	177	183	1367	105988	1367	73284001
434	298	3780	-21	-32	32	-52	174	182	1368	106042	1368	73284004
441	304	3799	-21	-33	-28	-52	174	182	1369	106143	1369	73284004
453	303	3796	-17	-34	71	-62	170	180	1370	106197	1370	73284005
464	310	3802	-23	-32	-24	-62	170	180	1371	106298	1371	73284005
428	299	3803	-23	-34	-3	-59	169	181	1372	106352	1372	73284006
435	295	3794	-23	-32	30	-59	169	181	1373	106453	1373	73284013
436	282	3791	-21	-36	-28	-57	167	185	1374	106507	1374	73284015
460	285	3799	-18	-31	17	-57	167	185	1375	106608	1375	73284015
429	294	3810	-21	-34	37	-56	174	180	1376	106662	1376	73284017
426	289	3806	-26	-31	41	-56	174	180	1377	106763	1377	73284017
437	296	3787	-22	-33	36	-56	174	184	1378	106817	1378	73284020
433	292	3817	-21	-35	-29	-56	174	184	1379	106918	1379	73284033
437	297	3797	-18	-32	40	-60	170	180	1380	106972	1380	73284034
446	311	3800	-22	-31	-33	-60	170	180	1381	107073	1381	73284043
458	300	3776	-22	-31	-2	-59	173	183	1382	107127	1382	73284043
457	321	3827	-20	-30	33	-59	173	183	1383	107228	1383	73284058
460	297	3802	-20	-32	-4	-58	168	190	1384	107282	1384	73284059
459	293	3804	-21	-29	35	-58	168	190	1385	107383	1385	73284060
450	292	3787	-21	-34	16	-60	170	178	1386	107437	1386	73284067
457	316	3806	-21	-33	6	-60	170	178	1387	107538	1387	73284067
458	304	3778	-20	-32	19	-54	170	178	1388	107592	1388	73284083
435	284	3812	-20	-34	18	-54	170	178	1389	107693	1389	73284083
440	283	3807	-18	-32	-1	-62	170	184	1390	107747	1390	73284086
437	290	3777	-19	-36	34	-62	170	184	1391	107848	1391	73284091
464	293	3808	-19	-33	9	-61	177	179	1392	107902	1392	73284091
439	296	3797	-20	-32	22	-61	177	179	1393	108003	1393	73284109
439	302	3787	-21	-32	51	-55	169	183	1394	108057	1394	73284110
452	294	3786	-20	-33	55	-55	169	183	1395	108158	1395	73284111
435	303	3796	-18	-31	17	-58	174	178	1396	108212	1396	73284116
432	292	3827	-19	-31	8	-58	174	178	1397	108313	1397	73284116
446	305	3821	-22	-32	54	-57	165	183	1398	108367	1398	73284133
447	292	3804	-23	-36	-27	-57	165	183	1399	108468	1399	73284133
449	301	3782	-19	-32	-12	-61	175	177	1400	108522	1400	73284135
441	296	3820	-19	-35	-7	-61	175	177	1401	108623	1401	73284138
449	301	3825	-19	-31	-25	-57	173	181	1402	108677	1402	73284139
452	309	3787	-21	-30	27	-57	173	181	1403	108778	1403	73284161
437	285	3811	-19	-30	45	-55	171	185	1404	108832	1404	73284161
430	296	3797	-20	-31	44	-55	171	185	1405	108933	1405	73284163
456	292	3785	-20	-32	-20	-58	174	180	1406	108987	1406	73284164
439	296	3806	-22	-29	-7	-58	174	180	1407	109088	1407	73284165
436	314	3810	-23	-33	58	-60	172	188	1408	109142	1408	73284186
442	304	3823	-23	-31	-2	-60	172	188	1409	109243	1409	73284186
472	307	3824	-20	-31	46	-53	175	183	1410	109297	1410	73284189
453	300	3785	-19	-31	13	-53	175	183	1411	109398	1411	73284189
439	304	3812	-20	-32	21	-62	174	180	1412	109452	1412	73284190
424	295	3792	-20	-32	-2	-62	174	180	1413	109553	1413	73284211
456	300	3800	-17	-30	-1	-54	172	182	1414	109607	1414	73284211
465	301	3799	-21	-33	35	-54	172	182	1415	109708	1415	73284214
442	308	3816	-22	-34	56	-60	170	186	1416	109762	1416	73284215
442	285	3820	-20	-34	53	-60	170	186	1417	109863	1417	73284215
449	298	3786	-18	-33	39	-55	171	177	1418	109917	1418	73284236
448	296	3794	-19	-34	-23	-55	171	177	1419	110018	1419	73284236
434	307	3796	-19	-33	5	-61	169	185	1420	110072	1420	73284239
433	307	3795	-20	-34	-40	-61	169	185	1421	110173	1421	73284249
448	307	3794	-21	-31	15	-57	163	173	1422	110227	1422	73284255
464	291	3822	-23	-34	24	-57	163	173	1423	110328	1423	73284260
420	286	3802	-22	-34	-3	-55	167	183	1424	110382	1424	73284263
437	308	3781	-22	-33	103	-55	167	183	1425	110483	1425	73284264
471	313	3797	-23	-35	2	-61	171	183	1426	110537	1426	73284265
454	293	3769	-19	-32	-4	-61	171	183	1427	110638	1427	73284266
453	299	3801	-19	-31	30	-62	174	184	1428	110692	1428	73284284
453	293	3809	-22	-31	-6	-62	174	184	1429	110793	1429	73284285
436	312	3799	-22	-33	59	-61	173	183	1430	110847	1430	73284288
438	301	3814	-22	-32	33	-61	173	183	1431	110948	1431	73284288
439	287	3804	-20	-31	19	-60	178	178	1432	111002	1432	73284291
454	303	3808	-21	-34	41	-60	178	178	1433	111103	1433	73284310
457	304	3804	-21	-31	51	-55	167	179	1434	111157	1434	73284311
464	299	3787	-20	-35	64	-55	167	179	1435	111258	1435	73284313
431	296	3774	-23	-33	18	-58	170	186	1436	111312	1436	73284314
437	308	3797	-21	-33	31	-58	170	186	1437	111413	1437	73284316
449	303	3792	-21	-31	59	-63	173	177	1438	111467	1438	73284334
450	290	3792	-21	-32	49	-63	173	177	1439	111568	1439	73284335
451	287	3802	-21	-32	16	-59	173	185	1440	111622	1440	73284338
446	305	3812	-19	-31	-6	-59	173	185	1441	111723	1441	73284339
421	310	3819	-21	-33	-11	-56	166	184	1442	111777	1442	73284343
419	282	3797	-18	-30	-5	-56	166	184	1443	111878	1443	73284343
440	298	3789	-19	-32	-18	-57	167	179	1444	111932	1444	73284359
444	314	3804	-23	-35	26	-57	167	179	1445	112033	1445	73284360
450	315	3809	-24	-33	-9	-59	173	181	1446	112087	1446	73284377
456	294	3804	-22	-32	17	-59	173	181	1447	112188	1447	73284379
446	291	3797	-19	-33	37	-60	168	180	1448	112242	1448	73284379
439	303	3800	-18	-30	0	-60	168	180	1449	112343	1449	73284380
440	299	3788	-22	-28	9	-54	168	182	1450	112397	1450	73284384
418	291	3813	-18	-31	55	-54	168	182	1451	112498	1451	73284385
442	304	3817	-20	-31	9	-61	173	179	1452	112552	1452	73284393
465	300	3775	-23	-32	44	-61	173	179	1453	112653	1453	73284394
463	308	3796	-18	-33	-13	-56	172	182	1454	112707	1454	73284395
449	299	3770	-19	-31	31	-56	172	182	1455	112808	1455	73284410
436	309	3792	-22	-28	-24	-56	170	184	1456	112862	1456	73284410
428	298	3778	-18	-27	32	-56	170	184	1457	112963	1457	73284417
443	285	3798	-21	-28	81	-54	172	184	1458	113017	1458	73284417
463	299	3810	-18	-29	51	-54	172	184	1459	113118	1459	73284433
457	291	3783	-20	-33	60	-58	168	184	1460	113172	1460	73284434
433	290	3823	-20	-34	18	-58	168	184	1461	113273	1461	73284435
460	308	3812	-19	-33	51	-54	180	180	1462	113327	1462	73284443
453	302	3804	-20	-31	49	-54	180	180	1463	113428	1463	73284443
445	296	3799	-23	-30	35	-57	167	183	1464	113482	1464	73284444
434	312	3779	-20	-28	2	-57	167	183	1465	113583	1465	73284458
420	297	3785	-20	-30	15	-59	173	181	1466	113637	1466	73284459
442	310	3799	-24	-30	-21	-59	173	181	1467	113738	1467	73284466
444	301	3804	-20	-28	33	-61	169	179	1468	113792	1468	73284466
447	312	3816	-19	-31	-4	-61	169	179	1469	113893	1469	73284468
428	304	3785	-21	-29	-22	-55	169	185	1470	113947	1470	73284483
438	304	3821	-23	-33	16	-55	169	185	1471	114048	1471	73284484
443	306	3809	-21	-32	14	-59	173	183	1472	114102	1472	73284513
460	309	3796	-19	-33	48	-59	173	183	1473	114203	1473	73284514
431	299	3794	-23	-33	38	-59	167	181	1474	114257	1474	73284517
435	300	3814	-24	-32	-3	-59	167	181	1475	114358	1475	73284517
446	303	3835	-24	-28	25	-59	173	183	1476	114412	1476	73284519
445	292	3796	-22	-34	21	-59	173	183	1477	114513	1477	73284534
463	293	3816	-20	-33	86	-59	171	183	1478	114567	1478	73284535
477	308	3811	-18	-33	56	-59	171	183	1479	114668	1479	73284538
471	281	3790	-18	-35	49	-56	174	178	1480	114722	1480	73284538
437	298	3771	-22	-32	45	-56	174	178	1481	114823	1481	73284540
463	299	3793	-21	-32	17	-60	172	188	1482	114877	1482	73284543
443	312	3785	-24	-33	11	-60	172	188	1483	114978	1483	73284544
430	318	3804	-22	-34	-27	-58	172	178	1484	115032	1484	73284559
435	286	3807	-20	-34	58	-58	172	178	1485	115133	1485	73284560
452	299	3793	-21	-33	44	-54	174	186	1486	115187	1486	73284562
448	308	3836	-19	-33	-27	-54	174	186	1487	115288	1487	73284563
438	290	3788	-22	-33	28	-55	167	177	1488	115342	1488	73284563
448	297	3803	-14	-33	17	-55	167	177	1489	115443	1489	73284583
440	290	3810	-20	-34	5	-57	169	183	1490	115497	1490	73284583
432	307	3787	-23	-32	23	-57	169	183	1491	115598	1491	73284586
423	296	3792	-22	-31	-36	-59	173	183	1492	115652	1492	73284587
440	308	3797	-19	-34	34	-59	173	183	1493	115753	1493	73284587
456	296	3813	-20	-33	56	-57	167	179	1494	115807	1494	73284608
464	331	3806	-20	-30	11	-57	167	179	1495	115908	1495	73284608
449	288	3783	-22	-30	33	-57	171	185	1496	115962	1496	73284610
442	296	3789	-22	-31	20	-57	171	185	1497	116063	1497	73284612
433	293	3786	-23	-34	70	-58	176	190	1498	116117	1498	73284612
449	299	3776	-21	-32	-7	-58	176	190	1499	116218	1499	73284633
467	313	3782	-24	-32	-56	-57	171	185	1500	116272	1500	73284633
423	303	3798	-20	-33	-7	-57	171	185	1501	116373	1501	73284637
434	298	3833	-18	-30	21	-54	178	182	1502	116427	1502	73284637
455	301	3818	-20	-33	-16	-54	178	182	1503	116528	1503	73284637
453	298	3820	-20	-35	75	-56	172	186	1504	116582	1504	73284658
452	291	3787	-20	-31	46	-56	172	186	1505	116683	1505	73284658
422	298	3774	-20	-33	-7	-57	173	179	1506	116737	1506	73284662
447	319	3789	-19	-31	5	-57	173	179	1507	116838	1507	73284662
469	298	3801	-18	-35	33	-60	174	184	1508	116892	1508	73284664
452	303	3820	-23	-32	10	-60	174	184	1509	116993	1509	73284683
440	299	3799	-21	-34	40	-59	169	185	1510	117047	1510	73284684
442	289	3832	-21	-32	34	-59	169	185	1511	117148	1511	73284687
459	294	3824	-22	-32	19	-52	172	184	1512	117202	1512	73284688
432	307	3772	-18	-34	63	-52	172	184	1513	117303	1513	73284690
454	290	3820	-23	-33	22	-56	170	180	1514	117357	1514	73284708
438	296	3802	-21	-33	23	-56	170	180	1515	117458	1515	73284708
445	312	3798	-21	-34	55	-52	170	184	1516	117512	1516	73284712
438	300	3804	-21	-33	-17	-52	170	184	1517	117613	1517	73284712
445	299	3791	-17	-30	8	-57	177	181	1518	117667	1518	73284714
420	299	3804	-20	-33	49	-57	177	181	1519	117768	1519	73284733
443	296	3799	-23	-31	69	-59	173	185	1520	117822	1520	73284733
437	300	3807	-21	-33	15	-59	173	185	1521	117923	1521	73284737
457	293	3817	-20	-33	1	-59	169	183	1522	117977	1522	73284737
449	303	3797	-24	-32	42	-59	169	183	1523	118078	1523	73284739
434	302	3806	-25	-31	45	-61	175	183	1524	118132	1524	73284758
447	305	3793	-19	-29	42	-61	175	183	1525	118233	1525	73284759
442	308	3797	-21	-32	55	-66	170	190	1526	118287	1526	73284769
441	300	3785	-18	-30	65	-66	170	190	1527	118388	1527	73284770
456	307	3798	-18	-34	50	-61	173	185	1528	118442	1528	73284770
444	308	3796	-25	-29	25	-61	173	185	1529	118544	1529	73284783
439	308	3782	-23	-30	33	-57	171	183	1530	118597	1530	73284783
450	300	3807	-20	-34	51	-57	171	183	1531	118698	1531	73284787
464	290	3797	-19	-32	27	-55	169	187	1532	118752	1532	73284787
447	315	3793	-21	-35	16	-55	169	187	1533	118853	1533	73284790
450	310	3804	-21	-33	-7	-60	168	178	1534	118907	1534	73284791
427	301	3798	-20	-33	-18	-60	168	178	1535	119008	1535	73284793
446	289	3794	-20	-33	53	-55	171	189	1536	119062	1536	73284808
454	302	3804	-23	-33	60	-55	171	189	1537	119163	1537	73284808
474	300	3781	-19	-34	10	-61	175	181	1538	119217	1538	73284817
437	303	3780	-19	-32	10	-61	175	181	1539	119318	1539	73284817
427	303	3842	-21	-29	27	-57	175	183	1540	119372	1540	73284819
454	307	3819	-18	-31	38	-57	175	183	1541	119473	1541	73284834
417	297	3797	-18	-32	7	-58	174	186	1542	119527	1542	73284835
428	279	3776	-20	-31	2	-58	174	186	1543	119628	1543	73284839
447	296	3781	-20	-35	32	-55	173	181	1544	119682	1544	73284839
425	289	3782	-26	-34	-10	-55	173	181	1545	119784	1545	73284843
459	301	3804	-20	-32	-14	-53	171	189	1546	119838	1546	73284859
452	313	3806	-17	-32	40	-53	171	189	1547	119939	1547	73284859
448	304	3806	-21	-33	27	-53	171	179	1548	119993	1548	73284865
444	297	3791	-22	-33	20	-53	171	179	1549	120094	1549	73284866
441	293	3813	-19	-30	30	-55	171	185	1550	120148	1550	73284868
444	294	3809	-19	-32	25	-55	171	185	1551	120249	1551	73284884
429	304	3789	-18	-31	1	-69	163	183	1552	120303	1552	73284886
433	317	3759	-20	-32	17	-69	163	183	1553	120404	1553	73284888
460	300	3805	-20	-33	12	-55	171	181	1554	120458	1554	73284888
441	287	3818	-19	-30	-37	-55	171	181	1555	120559	1555	73284892
431	299	3807	-22	-34	68	-63	171	183	1556	120613	1556	73284925
443	299	3806	-18	-34	-25	-63	171	183	1557	120714	1557	73284931
447	315	3809	-21	-31	20	-58	172	180	1558	120768	1558	73284931
445	309	3792	-18	-31	25	-58	172	180	1559	120869	1559	73284932
445	300	3823	-20	-32	0	-63	173	181	1560	120923	1560	73284934
438	295	3811	-22	-32	50	-63	173	181	1561	121024	1561	73284934
456	306	3795	-19	-32	-28	-59	175	185	1562	121078	1562	73284934
469	294	3801	-19	-35	17	-59	175	185	1563	121179	1563	73284938
416	295	3774	-22	-31	6	-66	174	186	1564	121233	1564	73284938
449	297	3798	-18	-32	-7	-66	174	186	1565	121334	1565	73284959
439	307	3806	-19	-34	42	-63	165	183	1566	121388	1566	73284960
448	299	3791	-19	-32	8	-63	165	183	1567	121489	1567	73284962
480	312	3815	-21	-32	31	-63	173	185	1568	121543	1568	73284963
447	296	3766	-20	-33	44	-63	173	185	1569	121644	1569	73284963
439	304	3793	-19	-33	-63	-56	176	182	1570	121698	1570	73284983
459	305	3813	-17	-34	37	-56	176	182	1571	121799	1571	73284983
446	302	3805	-16	-32	43	-60	176	188	1572	121853	1572	73284985
425	308	3798	-20	-30	42	-60	176	188	1573	121954	1573	73284987
437	302	3805	-17	-33	-6	-56	174	182	1574	122008	1574	73284987
473	310	3804	-18	-32	-1	-56	174	182	1575	122109	1575	73285010
440	295	3819	-19	-31	26	-56	170	188	1576	122163	1576	73285011
440	303	3806	-21	-34	39	-56	170	188	1577	122264	1577	73285013
456	302	3785	-21	-35	-1	-58	176	182	1578	122318	1578	73285014
429	293	3786	-20	-33	46	-58	176	182	1579	122419	1579	73285014
430	308	3806	-18	-30	39	-63	173	175	1580	122473	1580	73285033
460	310	3812	-18	-31	17	-63	173	175	1581	122574	1581	73285033
454	308	3798	-23	-34	23	-59	171	181	1582	122628	1582	73285035
441	304	3788	-24	-32	47	-59	171	181	1583	122729	1583	73285037
447	298	3818	-20	-34	1	-55	169	185	1584	122783	1584	73285039
448	309	3777	-21	-32	-26	-55	169	185	1585	122884	1585	73285058
437	308	3797	-18	-34	6	-60	170	182	1586	122938	1586	73285058
457	304	3787	-19	-32	-36	-60	170	182	1587	123040	1587	73285060
453	300	3826	-18	-32	41	-54	172	182	1588	123093	1588	73285062
445	290	3801	-19	-34	76	-54	172	182	1589	123194	1589	73285062
446	305	3803	-19	-31	22	-62	170	178	1590	123248	1590	73285083
440	298	3791	-20	-32	0	-62	170	178	1591	123349	1591	73285083
446	294	3801	-19	-33	34	-57	171	183	1592	123403	1592	73285087
437	295	3819	-23	-31	37	-57	171	183	1593	123504	1593	73285087
428	284	3813	-21	-31	26	-56	172	178	1594	123558	1594	73285087
463	308	3808	-21	-31	-7	-56	172	178	1595	123659	1595	73285108
435	294	3764	-20	-33	78	-57	171	183	1596	123713	1596	73285109
449	308	3797	-22	-33	45	-57	171	183	1597	123814	1597	73285111
461	300	3813	-21	-33	51	-57	171	179	1598	123868	1598	73285112
441	297	3806	-21	-33	-19	-57	171	179	1599	123969	1599	73285114
440	297	3804	-19	-33	17	-55	169	179	1600	124023	1600	73285159
424	299	3825	-18	-32	33	-55	169	179	1601	124124	1601	73285164
457	308	3797	-22	-33	-14	-59	169	183	1602	124178	1602	73285164
463	302	3802	-25	-31	14	-59	169	183	1603	124279	1603	73285166
440	296	3752	-24	-31	-66	-53	173	181	1604	124333	1604	73285167
436	308	3774	-22	-32	-67	-53	173	181	1605	124435	1605	73285167
458	301	3794	-20	-31	13	-56	172	180	1606	124488	1606	73285167
449	304	3812	-20	-29	4	-56	172	180	1607	124589	1607	73285184
442	297	3790	-19	-32	20	-60	170	180	1608	124643	1608	73285184
438	305	3807	-24	-37	52	-60	170	180	1609	124745	1609	73285187
450	313	3765	-22	-34	39	-63	169	177	1610	124799	1610	73285188
448	315	3772	-18	-34	35	-63	169	177	1611	124900	1611	73285188
445	296	3813	-18	-34	25	-51	171	185	1612	124954	1612	73285192
452	319	3785	-19	-33	54	-51	171	185	1613	125055	1613	73285192
455	307	3790	-21	-31	38	-57	173	181	1614	125109	1614	73285194
422	313	3781	-22	-34	-17	-57	173	181	1615	125210	1615	73285208
446	312	3800	-22	-32	64	-61	175	179	1616	125264	1616	73285208
461	299	3809	-23	-32	70	-61	175	179	1617	125365	1617	73285212
439	311	3792	-22	-32	-4	-56	170	188	1618	125419	1618	73285212
455	316	3789	-21	-33	27	-56	170	188	1619	125520	1619	73285214
450	301	3811	-22	-34	-3	-56	176	184	1620	125574	1620	73285219
444	307	3803	-18	-34	55	-56	176	184	1621	125675	1621	73285219
435	303	3818	-21	-35	-24	-59	173	183	1622	125729	1622	73285234
442	305	3814	-19	-35	30	-59	173	183	1623	125830	1623	73285234
437	284	3790	-19	-33	77	-53	171	185	1624	125884	1624	73285236
451	295	3787	-16	-29	12	-53	171	185	1625	125985	1625	73285242
435	297	3783	-20	-31	-18	-58	174	176	1626	126039	1626	73285243
457	295	3785	-21	-34	-14	-58	174	176	1627	126140	1627	73285259
430	291	3793	-21	-32	24	-54	168	180	1628	126194	1628	73285259
443	295	3804	-22	-33	18	-54	168	180	1629	126295	1629	73285265
443	299	3815	-18	-31	-17	-58	172	180	1630	126349	1630	73285265
456	306	3814	-22	-32	38	-58	172	180	1631	126450	1631	73285269
437	288	3800	-20	-31	16	-62	168	188	1632	126504	1632	73285283
448	313	3809	-22	-32	0	-62	168	188	1633	126605	1633	73285283
433	306	3797	-19	-29	0	-57	169	181	1634	126659	1634	73285288
450	300	3792	-20	-32	11	-57	169	181	1635	126760	1635	73285288
468	301	3791	-20	-36	32	-58	170	178	1636	126814	1636	73285292
446	310	3803	-23	-32	28	-58	170	178	1637	126915	1637	73285311
423	303	3773	-24	-32	43	-51	171	181	1638	126969	1638	73285326
449	305	3823	-21	-31	29	-51	171	181	1639	127070	1639	73285328
461	298	3801	-18	-30	-2	-55	169	179	1640	127124	1640	73285329
442	301	3790	-19	-32	14	-55	169	179	1641	127225	1641	73285329
444	293	3814	-22	-30	27	-60	160	184	1642	127279	1642	73285336
440	298	3806	-20	-34	37	-60	160	184	1643	127381	1643	73285336
463	311	3792	-19	-33	87	-58	168	180	1644	127434	1644	73285339
459	309	3824	-16	-32	-6	-58	168	180	1645	127535	1645	73285340
456	309	3806	-20	-34	41	-58	170	176	1646	127589	1646	73285343
443	305	3788	-18	-30	46	-58	170	176	1647	127690	1647	73285361
426	284	3820	-20	-30	-2	-64	166	184	1648	127744	1648	73285361
433	306	3799	-21	-33	36	-64	166	184	1649	127845	1649	73285364
444	285	3781	-23	-31	13	-60	174	180	1650	127899	1650	73285365
428	305	3803	-21	-28	-21	-60	174	180	1651	128000	1651	73285367
461	301	3809	-20	-31	40	-52	172	180	1652	128054	1652	73285386
453	289	3797	-18	-34	10	-52	172	180	1653	128155	1653	73285386
449	322	3808	-21	-33	52	-58	174	184	1654	128209	1654	73285389
449	285	3782	-22	-30	-2	-58	174	184	1655	128310	1655	73285390
429	290	3761	-21	-32	-13	-52	174	186	1656	128364	1656	73285411
451	300	3777	-22	-33	-19	-52	174	186	1657	128465	1657	73285411
468	290	3780	-25	-35	6	-57	173	185	1658	128519	1658	73285413
444	303	3797	-18	-34	-19	-57	173	185	1659	128620	1659	73285415
453	295	3795	-18	-36	25	-49	167	191	1660	128674	1660	73285416
434	307	3779	-22	-36	26	-49	167	191	1661	128775	1661	73285436
455	303	3792	-21	-31	47	-58	172	180	1662	128829	1662	73285436
467	300	3801	-18	-30	-28	-58	172	180	1663	128930	1663	73285437
442	297	3771	-18	-32	63	-54	170	186	1664	128984	1664	73285438
444	305	3795	-21	-31	47	-54	170	186	1665	129085	1665	73285438
412	296	3811	-21	-30	7	-60	176	178	1666	129139	1666	73285460
450	306	3817	-24	-31	11	-60	176	178	1667	129240	1667	73285460
455	325	3788	-21	-32	-16	-59	171	181	1668	129294	1668	73285462
439	300	3786	-21	-33	85	-59	171	181	1669	129395	1669	73285463
443	291	3803	-23	-32	22	-57	173	181	1670	129449	1670	73285463
446	286	3809	-21	-35	44	-57	173	181	1671	129550	1671	73285484
455	300	3802	-20	-31	45	-58	172	186	1672	129604	1672	73285486
450	303	3792	-24	-33	2	-58	172	186	1673	129705	1673	73285487
425	294	3802	-21	-32	30	-54	170	184	1674	129759	1674	73285488
431	311	3814	-21	-32	16	-54	170	184	1675	129861	1675	73285488
449	302	3792	-21	-33	-27	-63	173	179	1676	129914	1676	73285510
434	300	3778	-21	-32	47	-63	173	179	1677	130015	1677	73285510
456	295	3809	-24	-31	-14	-58	174	182	1678	130069	1678	73285512
448	300	3788	-23	-33	47	-58	174	182	1679	130170	1679	73285513
458	291	3787	-21	-33	48	-54	172	182	1680	130224	1680	73285513
440	306	3799	-21	-30	-6	-54	172	182	1681	130325	1681	73285534
442	286	3800	-21	-31	67	-59	171	179	1682	130379	1682	73285535
451	304	3826	-18	-33	-17	-59	171	179	1683	130480	1683	73285538
464	303	3796	-18	-31	83	-53	165	191	1684	130534	1684	73285538
445	292	3810	-17	-34	0	-53	165	191	1685	130635	1685	73285539
429	289	3802	-23	-32	-49	-56	174	176	1686	130689	1686	73285560
426	300	3819	-24	-37	55	-56	174	176	1687	130790	1687	73285560
434	297	3807	-18	-34	13	-59	173	181	1688	130844	1688	73285563
457	307	3801	-19	-31	67	-59	173	181	1689	130945	1689	73285563
445	303	3810	-22	-32	59	-57	175	175	1690	130999	1690	73285566
442	302	3812	-22	-34	2	-57	175	175	1691	131100	1691	73285568
441	304	3807	-19	-33	19	-63	171	181	1692	131154	1692	73285569
457	289	3798	-19	-34	17	-63	171	181	1693	131255	1693	73285585
450	279	3804	-19	-34	55	-54	174	188	1694	131309	1694	73285585
435	317	3814	-18	-31	50	-54	174	188	1695	131410	1695	73285587
439	298	3775	-21	-31	-5	-50	172	182	1696	131464	1696	73285594
463	310	3793	-19	-30	20	-50	172	182	1697	131565	1697	73285595
457	298	3774	-20	-35	10	-54	170	182	1698	131619	1698	73285608
435	297	3795	-20	-31	32	-54	170	182	1699	131720	1699	73285609
457	309	3810	-18	-35	53	-53	171	181	1700	131774	1700	73285610
444	319	3790	-21	-32	-19	-53	171	181	1701	131875	1701	73285643
428	292	3775	-19	-32	51	-55	173	183	1702	131929	1702	73285643
432	298	3796	-18	-30	-4	-55	173	183	1703	132030	1703	73285647
435	307	3801	-21	-30	52	-57	171	187	1704	132084	1704	73285647
445	284	3778	-19	-31	8	-57	171	187	1705	132186	1705	73285649
444	313	3798	-19	-33	15	-61	171	185	1706	132239	1706	73285651
445	304	3818	-22	-32	54	-61	171	185	1707	132340	1707	73285651
442	311	3804	-21	-29	13	-56	172	178	1708	132394	1708	73285654
451	310	3791	-22	-33	8	-56	172	178	1709	132495	1709	73285655
433	305	3792	-23	-32	45	-58	174	180	1710	132549	1710	73285657
442	295	3799	-16	-32	22	-58	174	180	1711	132650	1711	73285678
458	297	3801	-21	-32	73	-63	171	183	1712	132704	1712	73285678
448	292	3777	-22	-34	27	-63	171	183	1713	132805	1713	73285683
425	290	3807	-20	-33	87	-61	177	177	1714	132859	1714	73285683
446	290	3804	-20	-32	17	-61	177	177	1715	132960	1715	73285701
461	302	3802	-20	-30	-16	-55	177	181	1716	133014	1716	73285701
442	311	3790	-22	-33	8	-55	177	181	1717	133115	1717	73285701
452	294	3784	-18	-33	7	-56	170	182	1718	133169	1718	73285704
437	293	3796	-19	-32	2	-56	170	182	1719	133270	1719	73285706
444	305	3803	-17	-34	-18	-60	172	182	1720	133324	1720	73285714
436	293	3783	-19	-32	30	-60	172	182	1721	133425	1721	73285715
470	296	3789	-21	-32	11	-62	174	182	1722	133479	1722	73285717
460	297	3806	-17	-32	1	-62	174	182	1723	133580	1723	73285740
432	295	3807	-19	-32	-5	-55	169	179	1724	133634	1724	73285743
440	293	3795	-21	-33	3	-55	169	179	1725	133735	1725	73285744
443	321	3804	-25	-35	47	-58	172	184	1726	133789	1726	73285744
450	288	3799	-22	-33	39	-58	172	184	1727	133890	1727	73285747
456	313	3813	-16	-31	-62	-59	173	179	1728	133944	1728	73285765
448	302	3811	-19	-35	5	-59	173	179	1729	134045	1729	73285765
439	301	3809	-17	-33	26	-55	167	177	1730	134099	1730	73285794
430	295	3807	-21	-33	20	-55	167	177	1731	134200	1731	73285795
433	290	3808	-23	-33	20	-54	176	182	1732	134254	1732	73285797
445	300	3793	-21	-31	29	-54	176	182	1733	134355	1733	73285798
443	315	3795	-18	-34	19	-53	169	181	1734	134409	1734	73285798
459	305	3806	-19	-33	18	-53	169	181	1735	134510	1735	73285814
449	298	3804	-21	-30	-35	-61	173	183	1736	134564	1736	73285814
449	305	3804	-18	-32	60	-61	173	183	1737	134665	1737	73285817
424	304	3790	-21	-34	-7	-59	167	177	1738	134719	1738	73285818
444	315	3782	-21	-32	-8	-59	167	177	1739	134820	1739	73285818
456	312	3797	-20	-35	-18	-61	171	185	1740	134874	1740	73285822
441	297	3773	-20	-32	20	-61	171	185	1741	134975	1741	73285822
438	292	3803	-18	-34	23	-61	177	177	1742	135029	1742	73285825
438	306	3791	-22	-33	67	-61	177	177	1743	135130	1743	73285838
442	284	3789	-18	-31	46	-59	169	181	1744	135184	1744	73285839
452	319	3798	-18	-32	50	-59	169	181	1745	135285	1745	73285845
454	302	3794	-19	-30	40	-56	172	186	1746	135339	1746	73285845
442	287	3777	-21	-32	38	-56	172	186	1747	135440	1747	73285846
437	294	3787	-20	-32	-19	-56	172	176	1748	135494	1748	73285846
430	294	3825	-21	-30	-39	-56	172	176	1749	135595	1749	73285846
453	302	3822	-18	-31	57	-57	173	187	1750	135649	1750	73285864
451	308	3802	-20	-34	43	-57	173	187	1751	135750	1751	73285865
443	288	3797	-22	-32	85	-56	176	182	1752	135804	1752	73285872
444	309	3810	-21	-32	-10	-56	176	182	1753	135906	1753	73285872
458	297	3791	-21	-35	13	-60	170	176	1754	135960	1754	73285889
449	309	3792	-21	-36	-2	-60	170	176	1755	136061	1755	73285891
466	308	3823	-21	-34	5	-59	173	185	1756	136115	1756	73285892
436	293	3795	-22	-31	30	-59	173	185	1757	136216	1757	73285894
434	312	3783	-20	-30	40	-60	170	182	1758	136270	1758	73285894
453	310	3795	-23	-32	-39	-60	170	182	1759	136371	1759	73285913
442	301	3780	-22	-33	47	-57	169	185	1760	136425	1760	73285914
442	320	3792	-22	-31	-17	-57	169	185	1761	136526	1761	73285914
432	298	3808	-20	-33	62	-57	175	181	1762	136580	1762	73285922
446	292	3809	-23	-34	-6	-57	175	181	1763	136681	1763	73285922
460	304	3802	-20	-32	25	-57	177	181	1764	136735	1764	73285924
431	294	3782	-17	-34	24	-57	177	181	1765	136837	1765	73285939
446	313	3791	-21	-34	-40	-56	172	184	1766	136891	1766	73285940
442	299	3805	-24	-30	5	-56	172	184	1767	136992	1767	73285944
416	286	3792	-19	-33	8	-60	170	186	1768	137046	1768	73285945
422	303	3801	-21	-35	25	-60	170	186	1769	137147	1769	73285948
430	295	3795	-21	-32	4	-60	168	180	1770	137201	1770	73285963
449	299	3770	-22	-32	-9	-60	168	180	1771	137302	1771	73285967
455	275	3788	-18	-31	54	-57	177	181	1772	137356	1772	73285970
435	299	3788	-18	-31	26	-57	177	181	1773	137457	1773	73285971
460	308	3786	-22	-32	8	-58	168	180	1774	137511	1774	73285973
452	301	3798	-21	-31	-6	-58	168	180	1775	137612	1775	73285988
438	299	3808	-22	-37	70	-54	170	182	1776	137666	1776	73285988
431	300	3827	-18	-33	15	-54	170	182	1777	137767	1777	73285993
463	293	3805	-20	-31	30	-58	172	186	1778	137821	1778	73285993
434	289	3783	-19	-32	21	-58	172	186	1779	137922	1779	73286013
452	296	3804	-18	-35	41	-49	165	183	1780	137976	1780	73286013
419	298	3805	-21	-33	-13	-49	165	183	1781	138077	1781	73286014
427	292	3794	-17	-32	66	-58	174	182	1782	138131	1782	73286018
447	315	3795	-20	-33	35	-58	174	182	1783	138232	1783	73286018
464	320	3804	-19	-34	21	-57	167	183	1784	138286	1784	73286038
444	312	3812	-18	-35	9	-57	167	183	1785	138387	1785	73286038
439	295	3794	-17	-33	22	-56	174	184	1786	138441	1786	73286043
443	304	3792	-22	-33	68	-56	174	184	1787	138542	1787	73286043
434	317	3792	-20	-34	58	-57	171	179	1788	138596	1788	73286044
440	291	3797	-20	-32	13	-57	171	179	1789	138697	1789	73286063
439	299	3811	-23	-33	36	-52	168	186	1790	138751	1790	73286063
430	283	3795	-21	-33	57	-52	168	186	1791	138852	1791	73286066
445	312	3803	-20	-34	32	-58	170	182	1792	138906	1792	73286067
461	281	3818	-22	-32	-32	-58	170	182	1793	139007	1793	73286067
424	287	3806	-18	-34	-19	-61	175	181	1794	139061	1794	73286088
421	294	3808	-19	-35	75	-61	175	181	1795	139162	1795	73286088
438	310	3807	-20	-31	47	-54	178	188	1796	139216	1796	73286092
421	300	3823	-19	-35	69	-54	178	188	1797	139317	1797	73286093
433	282	3805	-22	-33	-11	-60	174	184	1798	139371	1798	73286093
439	310	3784	-19	-31	9	-60	174	184	1799	139472	1799	73286113
461	316	3786	-24	-33	34	-54	170	182	1800	139526	1800	73286114
444	286	3797	-22	-32	26	-54	170	182	1801	139627	1801	73286116
451	297	3805	-19	-31	37	-59	171	185	1802	139681	1802	73286119
447	301	3821	-23	-33	-3	-59	171	185	1803	139782	1803	73286120
434	304	3795	-24	-31	36	-59	175	179	1804	139836	1804	73286138
431	315	3791	-24	-32	55	-59	175	179	1805	139937	1805	73286139
469	313	3816	-18	-33	-1	-54	178	184	1806	139991	1806	73286141
453	302	3814	-22	-33	44	-54	178	184	1807	140092	1807	73286142
454	304	3801	-21	-32	55	-58	172	178	1808	140146	1808	73286143
456	292	3793	-24	-33	14	-58	172	178	1809	140247	1809	73286163
444	324	3801	-22	-30	38	-64	168	182	1810	140301	1810	73286163
431	314	3800	-19	-30	25	-64	168	182	1811	140402	1811	73286167
465	313	3797	-20	-33	19	-58	168	180	1812	140456	1812	73286167
450	299	3813	-19	-33	17	-58	168	180	1813	140557	1813	73286169
442	307	3811	-18	-32	13	-57	177	181	1814	140611	1814	73286188
470	302	3795	-20	-33	-21	-57	177	181	1815	140712	1815	73286188
445	291	3814	-21	-32	-8	-60	166	182	1816	140766	1816	73286192
445	308	3801	-20	-33	24	-60	166	182	1817	140867	1817	73286193
443	286	3810	-17	-31	15	-65	177	179	1818	140921	1818	73286194
449	296	3811	-19	-33	43	-65	177	179	1819	141022	1819	73286213
455	293	3816	-18	-32	49	-57	171	183	1820	141076	1820	73286213
433	300	3788	-18	-32	26	-57	171	183	1821	141177	1821	73286217
433	297	3793	-24	-32	43	-52	162	190	1822	141231	1822	73286219
429	296	3811	-18	-35	-1	-52	162	190	1823	141332	1823	73286219
452	314	3809	-17	-35	-23	-60	168	180	1824	141386	1824	73286238
463	286	3796	-21	-32	42	-60	168	180	1825	141487	1825	73286239
447	293	3780	-21	-34	-6	-58	172	184	1826	141541	1826	73286245
442	311	3809	-21	-30	21	-58	172	184	1827	141642	1827	73286246
435	302	3801	-19	-31	81	-57	173	179	1828	141696	1828	73286246
437	305	3794	-20	-32	24	-57	173	179	1829	141797	1829	73286263
430	294	3789	-19	-31	49	-61	173	183	1830	141851	1830	73286263
440	295	3803	-19	-32	-31	-61	173	183	1831	141952	1831	73286267
457	299	3798	-18	-36	43	-58	168	186	1832	142006	1832	73286267
443	296	3787	-21	-33	-15	-58	168	186	1833	142107	1833	73286269
435	298	3788	-23	-34	43	-58	172	180	1834	142161	1834	73286274
454	309	3815	-22	-35	-30	-58	172	180	1835	142262	1835	73286275
443	308	3821	-21	-33	49	-59	171	185	1836	142316	1836	73286289
463	295	3803	-24	-34	-36	-59	171	185	1837	142417	1837	73286289
444	298	3810	-19	-29	43	-52	168	182	1838	142471	1838	73286292
419	286	3798	-19	-31	-6	-52	168	182	1839	142572	1839	73286297
432	302	3793	-19	-33	31	-63	171	179	1840	142626	1840	73286297
450	300	3806	-20	-32	7	-63	171	179	1841	142727	1841	73286316
436	305	3798	-19	-32	7	-57	167	183	1842	142781	1842	73286316
449	297	3792	-18	-34	-28	-57	167	183	1843	142882	1843	73286319
431	312	3787	-18	-32	-15	-56	170	176	1844	142936	1844	73286320
441	302	3790	-19	-31	53	-56	170	176	1845	143037	1845	73286323
453	311	3802	-18	-32	-12	-56	170	182	1846	143091	1846	73286337
454	308	3792	-17	-30	-23	-56	170	182	1847	143192	1847	73286337
457	290	3808	-18	-33	-13	-62	166	182	1848	143246	1848	73286346
447	300	3818	-20	-29	9	-62	166	182	1849	143347	1849	73286346
457	287	3798	-21	-34	-14	-54	174	180	1850	143401	1850	73286348
449	299	3825	-18	-33	-17	-54	174	180	1851	143502	1851	73286383
439	310	3787	-22	-34	17	-62	174	184	1852	143556	1852	73286387
443	300	3794	-22	-30	36	-62	174	184	1853	143657	1853	73286388
453	287	3807	-20	-29	-22	-53	171	183	1854	143711	1854	73286389
448	288	3803	-20	-33	21	-53	171	183	1855	143813	1855	73286390
452	298	3800	-20	-33	2	-62	174	178	1856	143866	1856	73286391
448	310	3796	-21	-34	31	-62	174	178	1857	143967	1857	73286393
435	292	3799	-22	-30	-1	-56	174	180	1858	144021	1858	73286394
430	291	3784	-23	-28	-4	-56	174	180	1859	144122	1859	73286394
446	296	3786	-20	-31	41	-59	171	189	1860	144176	1860	73286396
455	303	3778	-17	-31	70	-59	171	189	1861	144277	1861	73286435
469	291	3800	-21	-35	10	-60	174	182	1862	144331	1862	73286436
461	293	3774	-24	-32	19	-60	174	182	1863	144432	1863	73286439
439	297	3800	-20	-32	-9	-58	170	184	1864	144486	1864	73286439
423	291	3806	-19	-32	-27	-58	170	184	1865	144587	1865	73286442
440	298	3808	-20	-34	19	-58	172	182	1866	144641	1866	73286443
441	301	3802	-20	-34	28	-58	172	182	1867	144743	1867	73286443
447	299	3801	-23	-33	-8	-59	173	181	1868	144796	1868	73286459
437	294	3795	-22	-33	-17	-59	173	181	1869	144897	1869	73286459
445	298	3791	-23	-35	56	-55	165	183	1870	144951	1870	73286461
452	287	3802	-21	-31	18	-55	165	183	1871	145052	1871	73286463
436	297	3799	-21	-30	-9	-62	166	186	1872	145106	1872	73286463
451	305	3800	-23	-33	-29	-62	166	186	1873	145207	1873	73286467
444	287	3796	-19	-33	10	-63	169	177	1874	145261	1874	73286467
421	305	3798	-21	-31	36	-63	169	177	1875	145362	1875	73286484
434	304	3815	-17	-31	-23	-54	170	182	1876	145416	1876	73286485
444	299	3769	-19	-34	-3	-54	170	182	1877	145517	1877	73286487
445	306	3800	-25	-31	61	-57	171	183	1878	145571	1878	73286493
465	310	3800	-22	-30	-38	-57	171	183	1879	145672	1879	73286494
463	293	3798	-20	-32	41	-53	169	179	1880	145726	1880	73286511
433	282	3761	-19	-35	-28	-53	169	179	1881	145827	1881	73286527
435	291	3801	-22	-32	26	-60	174	188	1882	145881	1882	73286529
465	303	3813	-19	-29	7	-60	174	188	1883	145982	1883	73286534
476	310	3789	-17	-31	-40	-59	167	175	1884	146036	1884	73286534
466	281	3793	-16	-31	18	-59	167	175	1885	146137	1885	73286536
449	294	3802	-18	-30	-14	-56	168	182	1886	146191	1886	73286536
437	301	3806	-17	-31	0	-56	168	182	1887	146292	1887	73286538
459	294	3802	-22	-32	-33	-62	176	178	1888	146346	1888	73286541
439	290	3812	-20	-33	34	-62	176	178	1889	146447	1889	73286541
451	301	3792	-19	-34	102	-55	173	185	1890	146501	1890	73286560
448	298	3793	-19	-32	25	-55	173	185	1891	146602	1891	73286560
456	308	3820	-23	-33	36	-53	171	185	1892	146656	1892	73286562
446	303	3786	-19	-31	79	-53	171	185	1893	146757	1893	73286565
447	286	3809	-20	-30	29	-62	170	178	1894	146811	1894	73286565
428	310	3779	-18	-31	53	-62	170	178	1895	146913	1895	73286585
439	290	3800	-20	-32	33	-50	168	186	1896	146967	1896	73286585
447	308	3797	-18	-34	6	-50	168	186	1897	147068	1897	73286587
455	297	3804	-19	-34	55	-55	171	183	1898	147122	1898	73286590
434	299	3780	-19	-34	33	-55	171	183	1899	147223	1899	73286590
435	291	3791	-21	-32	66	-53	171	181	1900	147277	1900	73286609
461	305	3811	-24	-33	64	-53	171	181	1901	147378	1901	73286610
440	299	3785	-21	-33	25	-55	173	181	1902	147432	1902	73286612
447	315	3786	-21	-31	60	-55	173	181	1903	147533	1903	73286613
425	289	3797	-19	-32	24	-59	177	179	1904	147587	1904	73286613
449	309	3819	-20	-34	20	-59	177	179	1905	147688	1905	73286634
448	300	3803	-19	-36	34	-56	168	184	1906	147742	1906	73286656
425	304	3798	-21	-33	-16	-56	168	184	1907	147843	1907	73286660
451	296	3811	-22	-34	47	-50	172	178	1908	147897	1908	73286660
456	293	3797	-22	-32	-36	-50	172	178	1909	147998	1909	73286661
437	284	3786	-21	-34	21	-60	176	182	1910	148052	1910	73286661
446	300	3799	-20	-36	-26	-60	176	182	1911	148153	1911	73286662
442	293	3793	-23	-34	5	-55	173	189	1912	148207	1912	73286663
450	315	3782	-22	-34	61	-55	173	189	1913	148308	1913	73286663
416	290	3802	-21	-34	-29	-55	175	181	1914	148362	1914	73286665
429	307	3766	-19	-33	61	-55	175	181	1915	148463	1915	73286683
443	296	3789	-25	-35	-7	-58	172	186	1916	148517	1916	73286683
426	312	3798	-18	-32	-57	-58	172	186	1917	148618	1917	73286687
423	302	3823	-18	-32	43	-59	169	187	1918	148672	1918	73286687
442	305	3798	-19	-33	-13	-59	169	187	1919	148773	1919	73286690
456	280	3817	-20	-32	64	-56	172	178	1920	148827	1920	73286708
465	299	3832	-22	-32	-8	-56	172	178	1921	148928	1921	73286709
447	286	3809	-21	-33	27	-59	171	185	1922	148982	1922	73286712
447	307	3804	-18	-37	36	-59	171	185	1923	149083	1923	73286712
437	303	3807	-17	-35	22	-58	170	180	1924	149137	1924	73286714
450	320	3808	-16	-31	8	-58	170	180	1925	149238	1925	73286733
467	287	3804	-20	-33	43	-58	168	186	1926	149292	1926	73286733
456	318	3818	-21	-33	24	-58	168	186	1927	149393	1927	73286737
460	291	3808	-17	-37	28	-59	169	181	1928	149447	1928	73286737
452	311	3771	-17	-33	-3	-59	169	181	1929	149548	1929	73286740
439	300	3799	-21	-34	84	-58	176	182	1930	149602	1930	73286759
434	294	3790	-20	-33	66	-58	176	182	1931	149703	1931	73286770
436	311	3812	-22	-35	17	-60	168	182	1932	149757	1932	73286776
451	296	3814	-22	-31	50	-60	168	182	1933	149858	1933	73286783
437	296	3816	-18	-33	48	-54	168	182	1934	149912	1934	73286784
443	315	3819	-18	-32	37	-54	168	182	1935	150013	1935	73286784
457	294	3804	-21	-34	59	-58	172	182	1936	150067	1936	73286784
444	276	3823	-21	-33	43	-58	172	182	1937	150168	1937	73286787
440	303	3796	-23	-32	48	-61	171	185	1938	150222	1938	73286787
445	294	3785	-18	-32	28	-61	171	185	1939	150323	1939	73286794
424	290	3803	-18	-32	-5	-56	172	178	1940	150377	1940	73286795
438	280	3796	-21	-33	11	-56	172	178	1941	150478	1941	73286809
451	304	3792	-20	-34	3	-61	171	179	1942	150532	1942	73286810
441	308	3794	-18	-34	49	-61	171	179	1943	150633	1943	73286810
451	283	3801	-22	-33	26	-58	178	180	1944	150687	1944	73286819
441	301	3796	-20	-33	6	-58	178	180	1945	150788	1945	73286820
437	306	3805	-20	-30	56	-59	171	189	1946	150842	1946	73286822
438	293	3788	-20	-30	-7	-59	171	189	1947	150943	1947	73286833
438	295	3794	-20	-32	40	-59	173	187	1948	150997	1948	73286833
448	302	3786	-21	-32	51	-59	173	187	1949	151099	1949	73286843
443	296	3794	-25	-34	25	-54	176	182	1950	151153	1950	73286843
427	292	3791	-22	-32	34	-54	176	182	1951	151254	1951	73286858
428	289	3792	-20	-33	69	-56	168	184	1952	151308	1952	73286859
443	303	3811	-18	-32	-16	-56	168	184	1953	151409	1953	73286859
437	303	3818	-20	-29	-39	-56	176	178	1954	151463	1954	73286868
435	295	3834	-23	-29	60	-56	176	178	1955	151564	1955	73286869
463	301	3807	-19	-33	19	-49	169	185	1956	151618	1956	73286870
465	293	3788	-18	-30	25	-49	169	185	1957	151719	1957	73286883
460	284	3796	-20	-33	24	-65	171	187	1958	151773	1958	73286883
433	303	3783	-23	-32	23	-65	171	187	1959	151874	1959	73286892
456	296	3794	-19	-32	16	-65	167	175	1960	151928	1960	73286893
428	302	3805	-23	-32	15	-65	167	175	1961	152029	1961	73286908
454	309	3814	-17	-32	-9	-58	168	184	1962	152083	1962	73286925
459	307	3806	-19	-32	71	-58	168	184	1963	152184	1963	73286926
459	303	3802	-20	-35	37	-56	172	182	1964	152238	1964	73286926
439	304	3804	-18	-34	43	-56	172	182	1965	152339	1965	73286927
448	300	3796	-18	-32	50	-54	174	176	1966	152393	1966	73286933
438	297	3786	-18	-33	-8	-54	174	176	1967	152494	1967	73286933
457	307	3812	-21	-33	3	-64	174	176	1968	152548	1968	73286934
437	292	3777	-18	-33	17	-64	174	176	1969	152649	1969	73286941
432	300	3809	-18	-34	-33	-57	171	179	1970	152703	1970	73286941
443	300	3829	-24	-32	39	-57	171	179	1971	152804	1971	73286958
461	309	3804	-21	-32	-8	-55	167	185	1972	152858	1972	73286961
448	332	3801	-21	-35	67	-55	167	185	1973	152959	1973	73286961
438	303	3792	-24	-32	-6	-64	176	182	1974	153013	1974	73286966
420	317	3811	-23	-30	0	-64	176	182	1975	153114	1975	73286967
433	296	3787	-20	-29	23	-55	167	181	1976	153168	1976	73286983
446	310	3793	-19	-32	-9	-55	167	181	1977	153269	1977	73286984
454	300	3797	-19	-31	16	-62	170	186	1978	153323	1978	73286986
433	300	3811	-21	-30	-24	-62	170	186	1979	153424	1979	73286988
440	300	3814	-22	-35	23	-65	169	179	1980	153478	1980	73286994
453	305	3798	-20	-33	38	-65	169	179	1981	153579	1981	73287008
444	297	3790	-22	-31	-3	-59	165	183	1982	153633	1982	73287008
444	290	3795	-20	-31	51	-59	165	183	1983	153734	1983	73287010
427	301	3799	-23	-32	15	-54	174	186	1984	153788	1984	73287013
445	300	3827	-20	-35	-6	-54	174	186	1985	153889	1985	73287014
445	303	3809	-21	-32	39	-55	177	179	1986	153943	1986	73287033
445	290	3781	-21	-32	-36	-55	177	179	1987	154044	1987	73287048
452	289	3809	-19	-32	70	-54	170	180	1988	154098	1988	73287054
446	287	3788	-20	-33	46	-54	170	180	1989	154199	1989	73287055
465	302	3817	-21	-31	10	-63	175	181	1990	154253	1990	73287055
