Accl X	Accl Y	Accl Z	Gyro X	Gyro Y	Gyro Z	Mag X	Mag Y	Mag Z	RPkt#	Rtime	LPkt#	Ltime
458	335	3798	-17	-35	11	-33	161	149	0	0	0	57224490
448	329	3806	-17	-34	10	-28	156	158	1	55	1	57224493
444	319	3781	-20	-37	15	-28	156	158	2	157	2	57224495
439	332	3779	-17	-33	-5	-32	162	144	3	211	3	57224495
428	322	3786	-15	-35	53	-32	162	144	4	313	4	57224514
445	333	3776	-21	-36	21	-28	164	150	5	367	5	57224514
424	326	3776	-19	-35	36	-28	164	150	6	469	6	57224516
459	343	3777	-18	-34	71	-29	161	147	7	523	7	57224517
446	334	3769	-17	-35	-39	-29	161	147	8	625	8	57224518
455	324	3793	-16	-33	69	-34	164	148	9	679	9	57224539
453	336	3782	-17	-36	-9	-34	164	148	10	781	10	57224539
427	321	3767	-22	-34	-28	-35	159	147	11	835	11	57224543
429	342	3779	-20	-33	-10	-35	159	147	12	937	12	57224543
436	335	3786	-21	-33	-5	-31	165	145	13	991	13	57224543
451	335	3797	-17	-36	13	-31	165	145	14	1093	14	57224564
436	327	3805	-20	-34	19	-34	162	152	15	1147	15	57224564
456	338	3767	-21	-34	60	-34	162	152	16	1249	16	57224568
444	318	3789	-24	-35	-44	-36	162	160	17	1303	17	57224568
439	334	3783	-17	-38	-7	-36	162	160	18	1405	18	57224570
454	336	3784	-16	-35	57	-35	161	145	19	1459	19	57224589
436	330	3791	-18	-36	-28	-35	161	145	20	1561	20	57224592
434	344	3760	-20	-37	73	-31	161	151	21	1615	21	57224595
452	336	3802	-18	-36	22	-31	161	151	22	1717	22	57224597
443	334	3785	-18	-36	9	-36	164	150	23	1771	23	57224598
436	327	3781	-17	-34	1	-36	164	150	24	1873	24	57224614
454	332	3785	-25	-33	-10	-28	164	152	25	1927	25	57224615
437	334	3780	-21	-36	16	-28	164	152	26	2029	26	57224618
423	338	3797	-19	-36	17	-33	161	153	27	2083	27	57224619
439	324	3790	-18	-36	28	-33	161	153	28	2185	28	57224620
450	321	3815	-18	-35	54	-31	167	147	29	2239	29	57224639
428	340	3768	-17	-35	24	-31	167	147	30	2341	30	57224639
442	318	3798	-18	-33	4	-30	166	152	31	2395	31	57224643
437	337	3791	-18	-32	5	-30	166	152	32	2497	32	57224644
451	334	3804	-20	-36	-17	-27	163	145	33	2551	33	57224645
453	334	3774	-20	-38	38	-27	163	145	34	2653	34	57224666
440	327	3779	-17	-35	64	-33	157	151	35	2707	35	57224668
449	344	3784	-17	-35	7	-33	157	151	36	2809	36	57224670
460	310	3787	-16	-33	39	-29	159	149	37	2863	37	57224670
445	338	3794	-15	-33	5	-29	159	149	38	2965	38	57224673
432	322	3793	-17	-34	35	-29	165	147	39	3019	39	57224674
452	329	3809	-17	-35	55	-29	165	147	40	3121	40	57224674
448	332	3794	-19	-34	35	-30	160	148	41	3175	41	57224689
459	335	3776	-17	-32	46	-30	160	148	42	3277	42	57224689
430	328	3776	-18	-33	-16	-34	168	150	43	3331	43	57224698
419	320	3780	-17	-34	-3	-34	168	150	44	3433	44	57224698
448	336	3802	-17	-36	39	-33	165	151	45	3487	45	57224698
441	323	3791	-16	-35	52	-33	165	151	46	3589	46	57224714
428	314	3784	-21	-37	-3	-30	162	152	47	3643	47	57224715
445	328	3796	-18	-37	-4	-30	162	152	48	3745	48	57224721
439	319	3793	-20	-35	38	-31	165	147	49	3799	49	57224722
446	336	3804	-16	-34	40	-31	165	147	50	3901	50	57224725
462	337	3783	-17	-35	47	-31	161	141	51	3955	51	57224739
436	329	3811	-20	-35	38	-31	161	141	52	4057	52	57224739
435	323	3777	-15	-35	-2	-34	168	146	53	4111	53	57224747
447	323	3789	-16	-35	31	-34	168	146	54	4213	54	57224747
437	322	3775	-20	-33	-4	-36	164	142	55	4267	55	57224749
443	328	3784	-20	-33	16	-36	164	142	56	4369	56	57224764
430	331	3779	-17	-36	63	-30	160	152	57	4423	57	57224764
450	330	3770	-18	-39	51	-30	160	152	58	4525	58	57224769
451	321	3797	-19	-35	44	-31	163	149	59	4579	59	57224769
421	319	3812	-20	-34	46	-31	163	149	60	4681	60	57224773
448	319	3804	-17	-35	-18	-30	156	152	61	4735	61	57224789
441	339	3804	-15	-33	52	-30	156	152	62	4837	62	57224789
455	328	3803	-17	-35	25	-32	160	150	63	4891	63	57224794
428	322	3782	-19	-35	22	-32	160	150	64	4993	64	57224796
450	334	3788	-18	-35	51	-28	162	148	65	5047	65	57224798
446	340	3796	-20	-34	-32	-28	162	148	66	5149	66	57224814
440	327	3790	-20	-32	32	-34	162	150	67	5203	67	57224817
443	330	3798	-20	-34	29	-34	162	150	68	5305	68	57224818
453	323	3792	-18	-32	36	-32	166	146	69	5359	69	57224818
452	351	3795	-18	-33	45	-32	166	146	70	5461	70	57224841
452	334	3800	-19	-33	0	-33	155	151	71	5516	71	57224842
442	327	3771	-22	-34	15	-33	155	151	72	5618	72	57224842
455	337	3784	-21	-35	-8	-35	171	153	73	5672	73	57224845
438	332	3785	-13	-34	21	-35	171	153	74	5774	74	57224845
431	328	3751	-20	-33	10	-36	164	142	75	5828	75	57224866
449	340	3788	-23	-36	19	-36	164	142	76	5930	76	57224866
450	331	3793	-20	-34	92	-30	160	150	77	5984	77	57224869
458	336	3783	-20	-33	-3	-30	160	150	78	6086	78	57224870
455	319	3781	-21	-35	-6	-35	159	147	79	6140	79	57224870
433	317	3793	-19	-33	21	-35	159	147	80	6242	80	57224890
446	317	3800	-23	-32	53	-33	159	147	81	6296	81	57224890
443	335	3803	-18	-35	75	-33	159	147	82	6398	82	57224892
435	325	3796	-19	-33	35	-26	166	156	83	6452	83	57224894
431	328	3802	-19	-35	70	-26	166	156	84	6554	84	57224894
431	331	3803	-17	-32	5	-31	163	147	85	6608	85	57224914
456	326	3808	-16	-35	30	-31	163	147	86	6710	86	57224915
440	323	3789	-18	-34	28	-33	159	153	87	6764	87	57224916
461	330	3801	-19	-37	50	-33	159	153	88	6866	88	57224918
441	344	3787	-17	-35	33	-31	165	143	89	6920	89	57224923
441	321	3777	-26	-37	-15	-31	165	143	90	7022	90	57224939
455	336	3798	-21	-34	18	-33	159	149	91	7076	91	57224939
445	327	3792	-20	-32	62	-33	159	149	92	7178	92	57224941
435	349	3793	-20	-33	-11	-33	161	147	93	7232	93	57224943
440	336	3819	-17	-35	62	-33	161	147	94	7334	94	57224944
448	328	3787	-16	-35	7	-34	166	148	95	7388	95	57224964
445	332	3799	-20	-38	19	-34	166	148	96	7490	96	57224964
438	322	3773	-18	-36	49	-35	167	147	97	7544	97	57224966
458	332	3802	-20	-34	4	-35	167	147	98	7646	98	57224967
427	320	3782	-20	-33	36	-28	162	148	99	7700	99	57224968
445	337	3788	-15	-37	0	-28	162	148	100	7802	100	57224989
442	333	3785	-17	-34	-7	-29	159	149	101	7856	101	57224989
457	326	3763	-20	-33	59	-29	159	149	102	7958	102	57224993
457	313	3783	-19	-37	-9	-30	164	152	103	8012	103	57224993
453	343	3774	-19	-33	23	-30	164	152	104	8114	104	57224994
460	341	3810	-20	-32	36	-30	162	144	105	8168	105	57225014
440	337	3785	-16	-34	18	-30	162	144	106	8270	106	57225014
430	321	3781	-17	-34	29	-28	160	154	107	8324	107	57225018
430	327	3776	-19	-35	31	-28	160	154	108	8426	108	57225018
448	341	3795	-19	-33	-20	-33	167	151	109	8480	109	57225020
454	332	3794	-16	-33	41	-33	167	151	110	8582	110	57225025
437	316	3783	-20	-34	-8	-34	164	148	111	8636	111	57225026
428	322	3799	-22	-33	46	-34	164	148	112	8738	112	57225065
436	329	3796	-19	-34	32	-32	156	150	113	8792	113	57225065
436	320	3803	-16	-35	89	-32	156	150	114	8894	114	57225068
440	331	3787	-20	-34	62	-31	165	151	115	8948	115	57225069
451	340	3790	-18	-34	49	-31	165	151	116	9050	116	57225069
439	333	3797	-20	-33	12	-33	159	143	117	9104	117	57225073
452	355	3803	-21	-34	-22	-33	159	143	118	9206	118	57225073
440	335	3809	-18	-36	-17	-36	164	146	119	9260	119	57225075
438	328	3785	-19	-33	11	-36	164	146	120	9362	120	57225090
429	336	3779	-14	-35	11	-41	163	149	121	9416	121	57225091
445	340	3806	-19	-35	52	-41	163	149	122	9518	122	57225094
447	331	3816	-18	-34	-32	-30	160	146	123	9572	123	57225096
437	339	3789	-16	-33	53	-30	160	146	124	9674	124	57225096
450	337	3793	-16	-33	16	-27	167	151	125	9728	125	57225098
424	317	3788	-19	-34	7	-27	167	151	126	9830	126	57225098
451	332	3808	-21	-33	30	-38	160	144	127	9884	127	57225115
440	328	3797	-19	-36	24	-38	160	144	128	9986	128	57225116
438	326	3777	-16	-36	18	-33	159	149	129	10040	129	57225119
440	332	3802	-18	-37	3	-33	159	149	130	10142	130	57225121
433	331	3796	-20	-32	6	-31	159	145	131	10196	131	57225121
460	316	3758	-21	-33	37	-31	159	145	132	10298	132	57225140
438	329	3787	-18	-32	-8	-33	161	157	133	10352	133	57225140
441	315	3786	-16	-34	44	-33	161	157	134	10454	134	57225144
451	324	3800	-21	-34	-12	-29	165	149	135	10508	135	57225144
453	328	3782	-19	-34	25	-29	165	149	136	10610	136	57225148
423	336	3790	-21	-30	73	-29	159	145	137	10664	137	57225164
454	323	3799	-18	-34	29	-29	159	145	138	10766	138	57225165
450	317	3778	-17	-34	23	-35	163	149	139	10820	139	57225169
443	341	3778	-17	-35	18	-35	163	149	140	10922	140	57225169
428	342	3811	-19	-34	44	-34	166	144	141	10976	141	57225173
448	331	3777	-19	-34	53	-34	166	144	142	11078	142	57225189
430	340	3811	-17	-36	11	-35	155	145	143	11132	143	57225189
452	333	3813	-19	-35	19	-35	155	145	144	11234	144	57225193
437	335	3806	-21	-35	-4	-33	167	149	145	11288	145	57225196
446	332	3804	-20	-32	19	-33	167	149	146	11390	146	57225197
436	330	3777	-19	-34	3	-32	164	148	147	11444	147	57225214
429	324	3786	-20	-34	45	-32	164	148	148	11546	148	57225214
449	333	3807	-16	-33	-5	-32	166	152	149	11600	149	57225218
447	333	3807	-17	-34	40	-32	166	152	150	11702	150	57225218
425	334	3793	-15	-34	42	-36	164	144	151	11756	151	57225222
440	329	3778	-17	-34	57	-36	164	144	152	11858	152	57225239
439	323	3781	-14	-35	8	-34	160	154	153	11912	153	57225239
438	339	3784	-17	-35	37	-34	160	154	154	12014	154	57225243
446	330	3789	-24	-35	35	-32	162	144	155	12068	155	57225243
441	326	3781	-20	-33	25	-32	162	144	156	12170	156	57225247
452	323	3811	-18	-33	3	-29	161	145	157	12224	157	57225264
430	321	3778	-13	-36	-3	-29	161	145	158	12326	158	57225267
449	328	3794	-18	-36	33	-33	169	151	159	12380	159	57225268
438	336	3784	-22	-37	29	-33	169	151	160	12482	160	57225270
431	321	3791	-22	-32	35	-35	159	145	161	12536	161	57225289
452	333	3773	-20	-36	56	-35	159	145	162	12638	162	57225289
445	344	3806	-19	-33	31	-39	165	151	163	12692	163	57225289
431	312	3791	-17	-36	48	-39	165	151	164	12794	164	57225293
445	334	3789	-18	-36	28	-38	154	146	165	12848	165	57225293
442	333	3803	-18	-33	24	-38	154	146	166	12950	166	57225315
435	323	3776	-18	-38	58	-29	163	145	167	13004	167	57225317
437	317	3767	-18	-35	31	-29	163	145	168	13106	168	57225318
469	334	3784	-16	-35	2	-29	159	149	169	13160	169	57225319
452	346	3811	-15	-35	23	-29	159	149	170	13262	170	57225325
460	313	3776	-20	-33	13	-35	163	147	171	13316	171	57225340
435	329	3782	-19	-34	-7	-35	163	147	172	13418	172	57225340
432	337	3816	-20	-33	13	-36	158	152	173	13472	173	57225343
461	345	3790	-19	-32	57	-36	158	152	174	13574	174	57225344
460	326	3815	-18	-35	-7	-31	165	151	175	13628	175	57225345
453	337	3773	-17	-32	3	-31	165	151	176	13730	176	57225364
439	325	3782	-18	-35	15	-33	163	149	177	13784	177	57225365
450	324	3782	-19	-32	42	-33	163	149	178	13886	178	57225367
434	333	3789	-19	-32	41	-27	161	149	179	13940	179	57225368
468	326	3797	-20	-33	-18	-27	161	149	180	14042	180	57225368
435	326	3811	-19	-35	6	-30	170	146	181	14096	181	57225389
444	340	3785	-22	-35	97	-30	170	146	182	14198	182	57225389
446	323	3800	-18	-36	-1	-29	161	147	183	14252	183	57225391
446	343	3806	-20	-36	26	-29	161	147	184	14354	184	57225393
457	332	3795	-19	-33	54	-36	164	148	185	14408	185	57225394
468	329	3793	-18	-36	-8	-36	164	148	186	14510	186	57225400
454	330	3775	-17	-33	34	-35	163	145	187	14564	187	57225400
440	353	3804	-20	-35	-14	-35	163	145	188	14666	188	57225414
455	320	3789	-19	-33	31	-32	158	148	189	14720	189	57225415
455	311	3803	-20	-35	49	-32	158	148	190	14822	190	57225415
433	313	3777	-21	-36	2	-29	163	143	191	14876	191	57225425
436	335	3788	-21	-35	10	-29	163	143	192	14978	192	57225425
436	325	3785	-19	-36	21	-37	157	147	193	15032	193	57225441
453	344	3787	-19	-33	13	-37	157	147	194	15134	194	57225442
440	328	3779	-20	-33	-24	-32	164	148	195	15188	195	57225443
438	331	3791	-16	-34	7	-32	164	148	196	15290	196	57225449
450	338	3816	-20	-33	46	-30	162	150	197	15344	197	57225451
448	328	3776	-17	-34	-22	-30	162	150	198	15446	198	57225464
424	333	3790	-20	-35	52	-32	160	150	199	15500	199	57225464
443	329	3780	-16	-33	11	-32	160	150	200	15602	200	57225464
421	322	3792	-16	-33	55	-27	161	145	201	15656	201	57225474
456	338	3807	-18	-34	65	-27	161	145	202	15758	202	57225475
449	339	3802	-15	-35	-8	-34	158	150	203	15812	203	57225485
451	328	3788	-19	-36	33	-34	158	150	204	15914	204	57225485
453	323	3790	-18	-31	17	-31	167	151	205	15968	205	57225488
438	329	3771	-19	-34	35	-31	167	151	206	16070	206	57225523
458	324	3797	-19	-36	-3	-24	162	154	207	16124	207	57225523
459	339	3774	-17	-33	10	-24	162	154	208	16226	208	57225526
447	321	3775	-19	-32	35	-36	162	146	209	16280	209	57225534
440	332	3778	-22	-34	54	-36	162	146	210	16382	210	57225536
433	338	3788	-22	-31	31	-28	166	152	211	16436	211	57225537
438	334	3787	-17	-33	14	-28	166	152	212	16538	212	57225537
438	326	3818	-19	-35	-25	-36	162	150	213	16592	213	57225548
444	330	3801	-14	-37	34	-36	162	150	214	16694	214	57225548
448	334	3794	-19	-35	18	-31	161	149	215	16748	215	57225550
462	346	3804	-21	-36	-16	-31	161	149	216	16850	216	57225552
441	335	3796	-16	-35	81	-36	162	144	217	16904	217	57225552
457	351	3769	-21	-35	13	-36	162	144	218	17006	218	57225557
439	330	3794	-20	-34	80	-32	162	144	219	17060	219	57225557
440	330	3783	-20	-32	46	-32	162	144	220	17162	220	57225573
454	328	3813	-18	-34	-4	-34	160	148	221	17216	221	57225574
439	324	3770	-20	-35	50	-34	160	148	222	17318	222	57225575
441	333	3777	-20	-34	22	-34	166	148	223	17372	223	57225583
456	334	3785	-18	-34	4	-34	166	148	224	17474	224	57225583
439	337	3776	-15	-34	15	-27	165	153	225	17528	225	57225598
446	341	3785	-16	-33	-33	-27	165	153	226	17630	226	57225598
436	337	3794	-16	-34	12	-34	164	146	227	17684	227	57225598
450	347	3777	-16	-35	42	-34	164	146	228	17786	228	57225607
430	336	3792	-21	-38	43	-33	165	145	229	17840	229	57225608
456	340	3801	-18	-34	-15	-33	165	145	230	17942	230	57225623
446	336	3792	-18	-36	-7	-32	164	148	231	17996	231	57225627
443	335	3783	-18	-35	17	-32	164	148	232	18098	232	57225631
437	322	3759	-19	-35	15	-28	166	146	233	18152	233	57225632
448	326	3790	-21	-35	51	-28	166	146	234	18254	234	57225632
447	320	3796	-16	-33	36	-35	161	151	235	18308	235	57225646
457	326	3796	-21	-33	36	-35	161	151	236	18410	236	57225646
438	336	3794	-16	-33	20	-33	161	149	237	18464	237	57225649
435	330	3798	-17	-33	33	-33	161	149	238	18566	238	57225655
451	342	3761	-17	-32	69	-34	168	144	239	18620	239	57225655
442	327	3789	-17	-34	20	-34	168	144	240	18722	240	57225698
443	336	3801	-16	-32	-15	-35	157	151	241	18776	241	57225698
445	336	3777	-16	-33	9	-35	157	151	242	18878	242	57225700
428	315	3832	-21	-31	-17	-36	162	150	243	18933	243	57225701
443	333	3786	-17	-33	40	-36	162	150	244	19035	244	57225702
466	333	3786	-18	-35	34	-31	165	147	245	19089	245	57225705
429	325	3774	-18	-35	27	-31	165	147	246	19191	246	57225705
448	326	3805	-19	-33	60	-35	167	149	247	19245	247	57225708
428	326	3792	-18	-36	31	-35	167	149	248	19347	248	57225723
442	327	3794	-20	-35	18	-36	164	146	249	19401	249	57225724
447	334	3783	-20	-34	2	-36	164	146	250	19503	250	57225726
433	336	3789	-20	-33	64	-36	156	154	251	19557	251	57225726
457	341	3793	-19	-35	49	-36	156	154	252	19659	252	57225729
457	337	3807	-16	-34	45	-35	165	147	253	19713	253	57225730
441	337	3799	-20	-35	2	-35	165	147	254	19815	254	57225730
458	326	3777	-16	-35	-7	-28	162	148	255	19869	255	57225748
438	339	3772	-20	-34	40	-28	162	148	256	19971	256	57225748
447	315	3811	-18	-33	56	-37	161	153	257	20025	257	57225751
451	328	3803	-19	-35	-22	-37	161	153	258	20127	258	57225751
448	326	3784	-21	-34	33	-36	162	152	259	20181	259	57225752
448	326	3808	-18	-33	37	-36	162	152	260	20283	260	57225771
438	338	3805	-19	-35	20	-35	163	149	261	20337	261	57225771
430	334	3789	-17	-34	20	-35	163	149	262	20439	262	57225775
428	329	3774	-18	-35	-17	-31	159	153	263	20493	263	57225777
447	350	3775	-17	-35	58	-31	159	153	264	20595	264	57225782
421	324	3776	-17	-34	37	-32	160	154	265	20649	265	57225797
450	343	3773	-15	-33	-11	-32	160	154	266	20751	266	57225798
424	330	3798	-16	-33	51	-33	165	149	267	20805	267	57225801
445	329	3794	-14	-33	-35	-33	165	149	268	20907	268	57225802
459	340	3788	-18	-35	34	-30	166	144	269	20961	269	57225804
442	335	3768	-24	-35	72	-30	166	144	270	21063	270	57225821
438	337	3781	-22	-35	28	-35	157	155	271	21117	271	57225822
456	334	3787	-20	-34	62	-35	157	155	272	21219	272	57225825
441	347	3784	-20	-35	36	-28	162	146	273	21273	273	57225825
455	333	3797	-21	-35	64	-28	162	146	274	21375	274	57225827
440	337	3793	-18	-36	9	-35	157	145	275	21429	275	57225846
431	334	3805	-17	-33	50	-35	157	145	276	21531	276	57225850
455	337	3799	-19	-33	20	-28	160	154	277	21585	277	57225851
450	344	3795	-18	-34	-4	-28	160	154	278	21687	278	57225852
441	336	3823	-18	-34	52	-33	159	149	279	21741	279	57225853
437	332	3778	-18	-35	1	-33	159	149	280	21843	280	57225871
450	342	3769	-20	-35	62	-31	161	147	281	21897	281	57225872
437	337	3781	-18	-34	36	-31	161	147	282	21999	282	57225875
443	336	3802	-17	-34	22	-35	159	151	283	22053	283	57225876
444	335	3773	-18	-34	57	-35	159	151	284	22155	284	57225877
435	327	3803	-23	-31	-27	-32	170	148	285	22209	285	57225898
437	345	3771	-21	-32	23	-32	170	148	286	22311	286	57225898
443	321	3781	-20	-35	28	-28	162	154	287	22365	287	57225901
453	338	3803	-19	-31	22	-28	162	154	288	22467	288	57225901
451	333	3787	-20	-34	22	-31	163	151	289	22521	289	57225921
446	338	3762	-18	-35	38	-31	163	151	290	22623	290	57225921
449	334	3777	-17	-34	45	-38	166	148	291	22677	291	57225921
453	333	3779	-16	-34	42	-38	166	148	292	22779	292	57225925
437	320	3798	-20	-35	19	-35	167	149	293	22833	293	57225925
444	330	3807	-13	-34	-5	-35	167	149	294	22935	294	57225932
445	333	3799	-19	-38	83	-28	168	146	295	22989	295	57225935
426	335	3794	-19	-33	42	-28	168	146	296	23091	296	57225946
435	333	3804	-16	-34	8	-35	163	149	297	23145	297	57225947
454	333	3799	-14	-34	24	-35	163	149	298	23247	298	57225948
462	318	3795	-16	-33	47	-34	170	142	299	23301	299	57225957
437	355	3817	-18	-35	-40	-34	170	142	300	23403	300	57225958
423	329	3780	-18	-33	21	-33	157	151	301	23457	301	57225962
421	322	3792	-20	-31	27	-33	157	151	302	23559	302	57225971
429	335	3800	-19	-33	-43	-26	162	150	303	23613	303	57225971
447	321	3802	-19	-35	38	-26	162	150	304	23715	304	57225981
433	348	3806	-20	-33	-37	-40	162	148	305	23769	305	57225986
440	339	3801	-17	-30	9	-40	162	148	306	23871	306	57225996
448	321	3790	-19	-31	44	-37	161	147	307	23925	307	57225998
428	322	3794	-20	-35	6	-37	161	147	308	24027	308	57225998
441	335	3790	-18	-36	-19	-33	167	145	309	24081	309	57226006
444	333	3786	-22	-32	42	-33	167	145	310	24183	310	57226006
437	320	3788	-20	-35	46	-34	158	154	311	24237	311	57226009
442	344	3785	-21	-34	48	-34	158	154	312	24339	312	57226021
459	338	3816	-16	-32	11	-28	162	154	313	24393	313	57226021
443	331	3791	-17	-34	25	-28	162	154	314	24495	314	57226030
451	325	3783	-19	-35	-8	-32	160	144	315	24549	315	57226031
447	323	3820	-19	-34	-12	-32	160	144	316	24651	316	57226047
434	334	3818	-19	-34	29	-30	164	152	317	24705	317	57226051
434	336	3798	-18	-35	-17	-30	164	152	318	24807	318	57226051
445	317	3797	-18	-34	27	-34	164	148	319	24861	319	57226055
454	333	3766	-19	-36	24	-34	164	148	320	24963	320	57226059
460	331	3797	-21	-35	58	-35	165	145	321	25017	321	57226072
458	322	3811	-18	-34	50	-35	165	145	322	25119	322	57226072
431	336	3780	-17	-37	6	-31	163	151	323	25173	323	57226072
425	324	3797	-17	-36	59	-31	163	151	324	25275	324	57226079
442	332	3797	-16	-33	37	-33	171	153	325	25329	325	57226079
430	346	3793	-17	-32	-60	-33	171	153	326	25431	326	57226097
459	322	3791	-17	-33	-3	-30	162	150	327	25485	327	57226097
444	343	3778	-18	-35	-25	-30	162	150	328	25587	328	57226099
446	339	3790	-18	-34	6	-26	164	152	329	25641	329	57226104
460	340	3787	-19	-30	64	-26	164	152	330	25743	330	57226105
436	333	3815	-17	-34	41	-29	155	151	331	25797	331	57226122
455	330	3758	-16	-34	33	-29	155	151	332	25899	332	57226122
443	330	3789	-20	-32	-20	-31	163	149	333	25953	333	57226125
446	330	3781	-17	-34	17	-31	163	149	334	26055	334	57226129
442	323	3781	-19	-34	9	-32	164	146	335	26109	335	57226129
447	323	3796	-22	-31	57	-32	164	146	336	26211	336	57226146
440	333	3774	-21	-33	51	-38	162	152	337	26265	337	57226146
435	336	3791	-17	-34	-19	-38	162	152	338	26367	338	57226149
460	345	3786	-15	-31	53	-36	164	144	339	26421	339	57226151
455	327	3784	-16	-33	24	-36	164	144	340	26523	340	57226152
439	331	3783	-19	-34	44	-32	160	152	341	26577	341	57226172
441	324	3797	-20	-34	90	-32	160	152	342	26679	342	57226172
440	323	3766	-19	-35	-11	-31	161	151	343	26733	343	57226174
439	317	3786	-18	-35	17	-31	161	151	344	26835	344	57226175
444	322	3774	-21	-32	13	-28	164	146	345	26889	345	57226176
449	332	3807	-22	-36	-13	-28	164	146	346	26991	346	57226197
442	339	3819	-21	-35	22	-29	157	149	347	27045	347	57226197
432	325	3789	-17	-34	-2	-29	157	149	348	27147	348	57226199
454	313	3791	-15	-34	69	-31	165	149	349	27201	349	57226200
437	335	3773	-20	-35	10	-31	165	149	350	27303	350	57226201
434	327	3806	-22	-36	-37	-33	167	147	351	27357	351	57226222
428	332	3790	-15	-36	47	-33	167	147	352	27459	352	57226222
455	336	3784	-21	-31	9	-33	159	157	353	27513	353	57226225
436	338	3767	-19	-32	27	-33	159	157	354	27615	354	57226225
438	338	3765	-15	-34	18	-30	164	146	355	27669	355	57226226
442	336	3773	-20	-33	0	-30	164	146	356	27771	356	57226249
425	336	3773	-23	-33	-10	-30	164	150	357	27825	357	57226250
437	344	3801	-20	-34	-34	-30	164	150	358	27927	358	57226253
440	332	3779	-17	-35	2	-33	169	151	359	27981	359	57226255
437	343	3796	-19	-37	-8	-33	169	151	360	28083	360	57226255
444	329	3774	-15	-36	27	-28	158	144	361	28137	361	57226272
431	327	3784	-20	-34	29	-28	158	144	362	28239	362	57226272
427	320	3793	-17	-34	-5	-33	165	155	363	28293	363	57226275
447	324	3774	-18	-36	38	-33	165	155	364	28395	364	57226277
438	314	3789	-18	-33	40	-33	163	149	365	28449	365	57226278
437	326	3792	-18	-33	20	-33	163	149	366	28551	366	57226285
422	322	3804	-18	-32	34	-32	160	148	367	28605	367	57226286
431	345	3798	-18	-32	33	-32	160	148	368	28707	368	57226333
437	334	3781	-19	-35	-14	-31	163	159	369	28761	369	57226333
441	336	3799	-18	-37	58	-31	163	159	370	28863	370	57226335
454	332	3786	-22	-32	21	-34	162	154	371	28917	371	57226348
439	325	3788	-24	-32	42	-34	162	154	372	29019	372	57226348
451	340	3807	-21	-33	19	-37	157	149	373	29073	373	57226351
451	327	3793	-18	-35	53	-37	157	149	374	29175	374	57226355
442	348	3774	-17	-35	23	-34	160	152	375	29229	375	57226356
440	315	3793	-18	-34	47	-34	160	152	376	29331	376	57226357
428	335	3786	-14	-34	56	-30	166	146	377	29385	377	57226357
445	344	3807	-17	-33	31	-30	166	146	378	29487	378	57226373
439	328	3796	-23	-33	30	-28	160	148	379	29541	379	57226374
439	341	3782	-21	-34	23	-28	160	148	380	29643	380	57226375
433	333	3786	-17	-30	64	-33	165	147	381	29697	381	57226377
452	329	3807	-20	-34	16	-33	165	147	382	29799	382	57226377
453	335	3758	-22	-34	-38	-30	156	152	383	29853	383	57226380
435	326	3780	-16	-34	18	-30	156	152	384	29955	384	57226380
431	339	3790	-19	-36	20	-35	165	149	385	30009	385	57226398
445	333	3806	-22	-35	-24	-35	165	149	386	30111	386	57226399
443	331	3790	-17	-32	36	-23	167	147	387	30165	387	57226400
453	324	3793	-19	-34	17	-23	167	147	388	30267	388	57226402
458	346	3763	-19	-34	18	-36	162	148	389	30321	389	57226402
452	325	3788	-20	-34	49	-36	162	148	390	30423	390	57226405
419	336	3795	-19	-32	-37	-29	157	153	391	30477	391	57226405
444	332	3793	-19	-33	11	-29	157	153	392	30579	392	57226423
454	321	3783	-20	-34	-21	-29	157	149	393	30633	393	57226424
434	328	3764	-18	-34	26	-29	157	149	394	30735	394	57226424
450	348	3796	-18	-34	-5	-34	158	146	395	30789	395	57226429
447	336	3761	-19	-33	-20	-34	158	146	396	30891	396	57226429
441	344	3802	-21	-33	0	-36	166	144	397	30945	397	57226433
446	324	3788	-17	-33	28	-36	166	144	398	31047	398	57226448
444	334	3778	-19	-34	57	-37	163	151	399	31101	399	57226448
451	334	3805	-16	-36	-22	-37	163	151	400	31203	400	57226453
442	338	3806	-16	-36	44	-31	161	143	401	31257	401	57226453
445	335	3810	-22	-34	56	-31	161	143	402	31359	402	57226457
442	332	3761	-20	-33	-4	-28	154	152	403	31413	403	57226473
428	311	3776	-18	-33	85	-28	154	152	404	31515	404	57226473
427	322	3793	-18	-34	39	-33	165	149	405	31569	405	57226478
439	336	3802	-19	-31	-34	-33	165	149	406	31671	406	57226478
442	353	3805	-16	-33	61	-33	159	149	407	31725	407	57226481
425	320	3789	-18	-33	17	-33	159	149	408	31827	408	57226498
431	336	3774	-21	-34	100	-32	166	146	409	31881	409	57226498
427	326	3779	-15	-33	-8	-32	166	146	410	31983	410	57226501
441	335	3774	-17	-35	22	-33	163	145	411	32037	411	57226502
439	333	3811	-16	-35	-18	-33	163	145	412	32139	412	57226521
440	338	3783	-18	-32	-5	-34	162	144	413	32193	413	57226522
432	345	3776	-20	-32	-32	-34	162	144	414	32295	414	57226525
442	327	3796	-20	-33	38	-32	166	146	415	32349	415	57226527
428	330	3773	-19	-35	44	-32	166	146	416	32451	416	57226528
465	328	3789	-17	-36	46	-33	165	145	417	32505	417	57226546
457	335	3782	-18	-34	7	-33	165	145	418	32607	418	57226546
440	333	3776	-19	-35	15	-28	160	156	419	32661	419	57226549
456	349	3788	-17	-35	39	-28	160	156	420	32763	420	57226550
445	319	3789	-21	-35	-14	-31	163	151	421	32817	421	57226550
461	348	3790	-21	-36	29	-31	163	151	422	32919	422	57226571
437	330	3800	-22	-33	-14	-33	159	151	423	32973	423	57226571
436	330	3760	-18	-34	59	-33	159	151	424	33075	424	57226574
454	329	3793	-18	-31	19	-34	162	150	425	33129	425	57226575
440	324	3796	-20	-34	39	-34	162	150	426	33231	426	57226575
428	323	3768	-21	-33	47	-28	160	148	427	33285	427	57226596
420	315	3777	-19	-31	5	-28	160	148	428	33387	428	57226596
441	336	3793	-21	-34	54	-35	165	149	429	33441	429	57226599
451	348	3798	-18	-34	-3	-35	165	149	430	33543	430	57226600
441	344	3797	-19	-33	14	-29	169	141	431	33597	431	57226601
428	347	3788	-21	-36	16	-29	169	141	432	33699	432	57226621
442	336	3787	-16	-38	-3	-30	158	150	433	33753	433	57226621
429	323	3785	-17	-37	46	-30	158	150	434	33855	434	57226624
429	327	3771	-19	-36	6	-30	162	150	435	33909	435	57226625
446	330	3794	-17	-33	-2	-30	162	150	436	34011	436	57226626
430	335	3779	-16	-35	-12	-34	164	150	437	34065	437	57226646
429	327	3799	-19	-34	9	-34	164	150	438	34167	438	57226646
443	338	3784	-19	-36	56	-27	165	153	439	34221	439	57226649
456	330	3797	-15	-34	-2	-27	165	153	440	34323	440	57226650
429	332	3775	-18	-34	-21	-36	164	150	441	34377	441	57226650
462	347	3784	-22	-33	-3	-36	164	150	442	34479	442	57226671
434	342	3814	-21	-31	-1	-38	164	148	443	34533	443	57226671
448	327	3797	-17	-33	84	-38	164	148	444	34635	444	57226675
444	350	3813	-17	-34	17	-32	162	146	445	34689	445	57226676
444	339	3805	-19	-36	40	-32	162	146	446	34791	446	57226677
433	334	3785	-21	-33	48	-32	160	146	447	34845	447	57226696
452	326	3795	-20	-34	23	-32	160	146	448	34947	448	57226696
436	327	3805	-19	-34	44	-33	161	153	449	35001	449	57226700
433	329	3769	-19	-35	37	-33	161	153	450	35103	450	57226700
439	326	3794	-21	-38	-7	-37	163	151	451	35157	451	57226702
434	335	3782	-20	-34	46	-37	163	151	452	35259	452	57226721
437	320	3746	-20	-32	13	-30	166	150	453	35313	453	57226721
442	346	3792	-14	-34	28	-30	166	150	454	35415	454	57226725
442	332	3794	-22	-32	-8	-36	160	150	455	35469	455	57226725
439	323	3785	-22	-32	6	-36	160	150	456	35571	456	57226727
461	327	3797	-20	-33	14	-34	158	148	457	35625	457	57226746
454	333	3807	-16	-36	34	-34	158	148	458	35727	458	57226747
429	328	3795	-17	-34	46	-26	160	150	459	35781	459	57226750
438	319	3777	-21	-32	12	-26	160	150	460	35883	460	57226750
444	340	3786	-22	-33	6	-29	167	149	461	35937	461	57226752
433	333	3796	-21	-35	17	-29	167	149	462	36039	462	57226757
441	341	3781	-19	-34	26	-29	157	149	463	36093	463	57226758
452	324	3760	-20	-32	28	-29	157	149	464	36195	464	57226771
428	331	3810	-16	-31	32	-28	160	148	465	36249	465	57226771
445	318	3819	-19	-32	39	-28	160	148	466	36351	466	57226774
462	325	3815	-18	-32	5	-31	165	153	467	36405	467	57226808
448	309	3787	-18	-34	14	-31	165	153	468	36507	468	57226808
447	337	3811	-18	-32	42	-30	160	150	469	36561	469	57226811
450	333	3786	-21	-34	40	-30	160	150	470	36663	470	57226811
453	325	3812	-24	-33	28	-33	167	149	471	36717	471	57226814
440	342	3801	-20	-34	21	-33	167	149	472	36819	472	57226815
439	328	3794	-19	-35	-10	-35	159	147	473	36873	473	57226815
441	349	3796	-18	-33	14	-35	159	147	474	36975	474	57226819
444	328	3790	-16	-34	35	-27	159	143	475	37029	475	57226819
434	334	3776	-20	-36	8	-27	159	143	476	37131	476	57226835
441	320	3785	-19	-35	4	-29	161	155	477	37185	477	57226835
452	337	3785	-18	-32	-27	-29	161	155	478	37287	478	57226835
442	320	3769	-18	-33	56	-30	162	144	479	37341	479	57226843
445	335	3819	-17	-34	16	-30	162	144	480	37443	480	57226843
453	341	3806	-11	-37	43	-28	160	154	481	37497	481	57226858
450	334	3785	-16	-35	14	-28	160	154	482	37599	482	57226858
446	328	3784	-14	-32	40	-38	164	154	483	37653	483	57226860
431	331	3790	-16	-32	-9	-38	164	154	484	37755	484	57226866
457	334	3810	-20	-35	-2	-35	159	147	485	37809	485	57226867
455	320	3798	-20	-36	33	-35	159	147	486	37911	486	57226882
441	335	3783	-21	-38	68	-29	165	151	487	37965	487	57226883
442	340	3792	-15	-32	31	-29	165	151	488	38067	488	57226885
449	335	3790	-18	-35	35	-29	165	151	489	38121	489	57226891
461	338	3781	-19	-33	-6	-29	165	151	490	38223	490	57226891
421	324	3787	-20	-33	-3	-39	161	147	491	38277	491	57226907
450	332	3791	-16	-35	17	-39	161	147	492	38379	492	57226908
446	334	3809	-16	-35	32	-31	167	155	493	38433	493	57226910
448	334	3806	-20	-35	11	-31	167	155	494	38535	494	57226915
447	319	3768	-20	-31	26	-32	164	144	495	38589	495	57226915
445	323	3768	-16	-34	12	-32	164	144	496	38691	496	57226935
446	329	3780	-18	-36	-36	-30	164	152	497	38745	497	57226935
432	330	3781	-20	-36	-14	-30	164	152	498	38847	498	57226937
435	333	3788	-16	-35	5	-28	166	146	499	38901	499	57226939
452	331	3794	-18	-35	-10	-28	166	146	500	39003	500	57226939
448	328	3796	-18	-33	35	-30	164	150	501	39057	501	57226984
452	345	3790	-15	-34	71	-30	164	150	502	39159	502	57226984
452	326	3801	-17	-37	43	-32	160	150	503	39213	503	57226988
446	318	3788	-20	-35	7	-32	160	150	504	39315	504	57226988
442	338	3799	-18	-36	15	-36	162	152	505	39369	505	57226988
442	331	3767	-16	-36	80	-36	162	152	506	39471	506	57226992
446	337	3810	-21	-37	63	-37	167	145	507	39525	507	57226992
441	341	3796	-19	-34	13	-37	167	145	508	39627	508	57227009
451	320	3768	-17	-35	26	-30	164	148	509	39681	509	57227010
425	336	3806	-19	-32	-26	-30	164	148	510	39783	510	57227012
454	338	3822	-19	-32	27	-30	160	148	511	39837	511	57227015
439	335	3790	-21	-32	19	-30	160	148	512	39939	512	57227016
463	331	3801	-19	-32	-57	-34	164	152	513	39993	513	57227016
442	324	3802	-17	-34	43	-34	164	152	514	40095	514	57227017
433	340	3787	-20	-35	32	-32	166	146	515	40149	515	57227019
430	320	3793	-22	-35	-17	-32	166	146	516	40251	516	57227034
439	335	3787	-18	-36	45	-28	164	148	517	40305	517	57227034
442	325	3800	-18	-34	-8	-28	164	148	518	40407	518	57227038
448	342	3765	-18	-33	23	-29	161	147	519	40461	519	57227038
450	341	3781	-19	-31	24	-29	161	147	520	40563	520	57227040
462	329	3795	-20	-34	-1	-31	165	147	521	40617	521	57227059
449	313	3792	-21	-36	32	-31	165	147	522	40719	522	57227059
445	341	3770	-18	-36	44	-30	162	152	523	40773	523	57227063
454	335	3785	-19	-35	43	-30	162	152	524	40875	524	57227064
433	329	3803	-21	-33	-14	-29	165	145	525	40929	525	57227065
446	337	3778	-16	-36	7	-29	165	145	526	41031	526	57227084
445	335	3821	-17	-37	58	-29	161	151	527	41085	527	57227084
445	324	3807	-15	-34	34	-29	161	151	528	41187	528	57227088
444	320	3790	-19	-32	-23	-31	171	149	529	41241	529	57227088
457	335	3782	-18	-34	3	-31	171	149	530	41343	530	57227090
430	325	3782	-20	-33	-6	-36	162	150	531	41397	531	57227109
442	337	3796	-17	-35	-20	-36	162	150	532	41499	532	57227110
452	331	3788	-19	-37	33	-27	159	153	533	41553	533	57227113
445	327	3789	-17	-33	25	-27	159	153	534	41655	534	57227113
450	338	3779	-17	-32	36	-32	160	146	535	41709	535	57227135
442	320	3790	-21	-34	24	-32	160	146	536	41811	536	57227135
417	325	3817	-19	-33	18	-38	156	148	537	41865	537	57227135
423	341	3798	-20	-33	-16	-38	156	148	538	41967	538	57227138
441	338	3792	-20	-35	17	-31	161	149	539	42021	539	57227138
446	338	3782	-18	-36	20	-31	161	149	540	42123	540	57227144
442	323	3803	-18	-33	23	-26	162	146	541	42177	541	57227145
437	332	3777	-16	-32	-30	-26	162	146	542	42279	542	57227158
447	345	3795	-13	-35	4	-28	160	150	543	42333	543	57227159
446	330	3787	-16	-35	45	-28	160	150	544	42435	544	57227159
448	333	3805	-17	-34	15	-32	162	146	545	42489	545	57227169
428	330	3787	-17	-31	-21	-32	162	146	546	42591	546	57227169
425	326	3790	-22	-30	-44	-32	158	148	547	42645	547	57227171
443	335	3795	-19	-35	-5	-32	158	148	548	42747	548	57227183
447	329	3772	-15	-33	31	-31	161	149	549	42801	549	57227183
451	328	3788	-20	-35	17	-31	161	149	550	42903	550	57227193
449	343	3789	-17	-36	43	-35	165	153	551	42957	551	57227196
445	326	3803	-20	-33	29	-35	165	153	552	43059	552	57227208
445	332	3800	-18	-36	-7	-34	162	146	553	43113	553	57227209
447	325	3803	-15	-34	52	-34	162	146	554	43215	554	57227209
445	337	3794	-19	-35	14	-31	159	141	555	43269	555	57227218
444	333	3801	-19	-33	10	-31	159	141	556	43371	556	57227218
450	348	3786	-22	-32	51	-34	162	154	557	43425	557	57227220
431	334	3773	-21	-35	6	-34	162	154	558	43527	558	57227233
451	338	3797	-19	-35	5	-33	163	155	559	43581	559	57227233
445	347	3772	-20	-35	-8	-33	163	155	560	43683	560	57227242
452	322	3778	-19	-35	31	-31	161	147	561	43737	561	57227242
449	339	3797	-14	-31	45	-31	161	147	562	43839	562	57227258
438	326	3799	-20	-34	7	-29	159	153	563	43893	563	57227268
442	345	3787	-18	-35	13	-29	159	153	564	43995	564	57227271
447	343	3787	-19	-36	44	-30	164	148	565	44049	565	57227286
430	321	3794	-20	-36	49	-30	164	148	566	44151	566	57227287
446	342	3792	-17	-35	18	-30	162	148	567	44205	567	57227287
447	337	3745	-21	-37	32	-30	162	148	568	44307	568	57227288
451	344	3785	-19	-35	88	-30	162	146	569	44361	569	57227288
423	318	3749	-17	-34	-4	-30	162	146	570	44463	570	57227290
432	351	3777	-20	-35	44	-29	167	149	571	44517	571	57227290
452	334	3794	-16	-35	0	-29	167	149	572	44619	572	57227307
439	323	3784	-18	-36	-21	-31	161	155	573	44673	573	57227308
451	336	3784	-16	-35	29	-31	161	155	574	44775	574	57227308
440	324	3774	-22	-33	9	-31	163	151	575	44829	575	57227315
443	321	3797	-18	-36	7	-31	163	151	576	44931	576	57227315
441	327	3801	-21	-34	43	-33	159	147	577	44985	577	57227332
451	344	3777	-20	-35	-56	-33	159	147	578	45087	578	57227333
457	337	3788	-19	-34	31	-36	158	152	579	45141	579	57227335
450	342	3783	-20	-34	34	-36	158	152	580	45243	580	57227337
434	325	3793	-18	-34	-5	-33	161	147	581	45297	581	57227338
458	324	3789	-16	-32	11	-33	161	147	582	45399	582	57227357
432	318	3779	-17	-32	-3	-34	162	154	583	45453	583	57227358
444	326	3775	-18	-34	74	-34	162	154	584	45555	584	57227360
451	344	3803	-17	-34	-51	-34	164	148	585	45609	585	57227362
454	325	3802	-18	-35	-29	-34	164	148	586	45711	586	57227363
442	323	3797	-19	-33	-10	-27	161	147	587	45765	587	57227382
446	335	3794	-19	-32	-18	-27	161	147	588	45867	588	57227383
437	345	3786	-18	-36	1	-33	161	151	589	45921	589	57227385
441	334	3792	-19	-33	29	-33	161	151	590	46023	590	57227387
452	337	3762	-18	-35	-7	-34	166	152	591	46077	591	57227387
449	339	3794	-21	-36	52	-34	166	152	592	46179	592	57227408
462	322	3780	-19	-34	-40	-30	158	150	593	46233	593	57227408
443	320	3776	-15	-33	54	-30	158	150	594	46335	594	57227410
429	320	3787	-13	-35	-35	-36	164	150	595	46389	595	57227412
424	342	3774	-20	-36	16	-36	164	150	596	46491	596	57227416
445	332	3779	-19	-33	20	-32	166	144	597	46545	597	57227433
436	338	3784	-18	-31	0	-32	166	144	598	46647	598	57227433
420	312	3776	-16	-36	61	-31	161	157	599	46701	599	57227436
452	320	3804	-19	-36	61	-31	161	157	600	46803	600	57227437
439	335	3784	-17	-35	-6	-29	169	149	601	46857	601	57227437
446	325	3764	-22	-35	22	-29	169	149	602	46959	602	57227458
441	327	3789	-17	-34	32	-31	161	153	603	47013	603	57227459
447	347	3812	-16	-36	18	-31	161	153	604	47115	604	57227461
447	348	3799	-20	-34	15	-31	163	149	605	47169	605	57227462
441	335	3806	-20	-32	43	-31	163	149	606	47271	606	57227465
438	345	3791	-20	-35	-2	-31	163	155	607	47325	607	57227483
436	334	3804	-21	-36	-25	-31	163	155	608	47427	608	57227485
433	328	3754	-18	-34	52	-30	166	148	609	47481	609	57227487
439	331	3781	-15	-33	-16	-30	166	148	610	47583	610	57227487
435	337	3793	-20	-32	-3	-36	162	152	611	47637	611	57227489
435	336	3773	-21	-31	21	-36	162	152	612	47739	612	57227508
449	329	3786	-23	-33	-6	-31	159	151	613	47793	613	57227508
447	338	3802	-19	-33	47	-31	159	151	614	47895	614	57227511
436	337	3791	-19	-34	24	-26	162	150	615	47949	615	57227511
439	333	3781	-13	-35	28	-26	162	150	616	48051	616	57227514
426	332	3806	-20	-36	2	-33	167	151	617	48105	617	57227534
442	315	3801	-22	-33	9	-33	167	151	618	48207	618	57227535
450	325	3800	-19	-34	70	-31	161	151	619	48261	619	57227536
460	337	3781	-18	-32	30	-31	161	151	620	48363	620	57227537
439	334	3816	-17	-31	10	-34	166	150	621	48417	621	57227539
467	335	3789	-21	-34	1	-34	166	150	622	48519	622	57227558
449	342	3769	-20	-32	47	-36	160	148	623	48573	623	57227558
452	339	3772	-19	-34	66	-36	160	148	624	48675	624	57227561
428	321	3788	-19	-34	-42	-29	157	151	625	48729	625	57227562
430	311	3790	-19	-34	44	-29	157	151	626	48831	626	57227566
427	328	3786	-20	-34	56	-24	164	152	627	48885	627	57227567
451	328	3801	-16	-37	-2	-24	164	152	628	48987	628	57227567
452	318	3769	-19	-35	70	-28	160	152	629	49041	629	57227584
432	337	3779	-20	-37	24	-28	160	152	630	49143	630	57227584
448	337	3809	-20	-35	40	-32	164	148	631	49197	631	57227613
424	331	3797	-20	-35	27	-32	164	148	632	49299	632	57227615
445	333	3794	-16	-36	-29	-33	163	153	633	49353	633	57227616
441	343	3782	-15	-37	34	-33	163	153	634	49455	634	57227617
436	327	3798	-16	-34	3	-28	164	144	635	49509	635	57227617
438	345	3804	-17	-34	16	-28	164	144	636	49611	636	57227634
416	332	3817	-13	-35	77	-31	159	149	637	49665	637	57227635
435	343	3811	-18	-34	-37	-31	159	149	638	49767	638	57227636
455	327	3798	-17	-34	13	-31	157	149	639	49821	639	57227638
446	335	3812	-18	-35	-49	-31	157	149	640	49923	640	57227638
445	340	3786	-15	-35	6	-36	166	148	641	49977	641	57227642
460	328	3797	-20	-33	28	-36	166	148	642	50079	642	57227642
446	341	3779	-19	-32	41	-29	163	147	643	50133	643	57227644
460	341	3806	-20	-34	37	-29	163	147	644	50235	644	57227659
447	329	3807	-24	-35	18	-29	163	151	645	50289	645	57227659
450	342	3773	-21	-32	-26	-29	163	151	646	50391	646	57227664
427	331	3791	-22	-32	10	-33	159	143	647	50445	647	57227664
463	330	3793	-18	-34	25	-33	159	143	648	50547	648	57227667
434	331	3796	-18	-31	49	-32	164	152	649	50601	649	57227685
450	334	3800	-17	-31	-10	-32	164	152	650	50703	650	57227686
444	320	3779	-19	-32	-6	-33	165	145	651	50757	651	57227689
453	351	3814	-18	-35	33	-33	165	145	652	50859	652	57227690
427	343	3796	-16	-36	11	-30	164	144	653	50913	653	57227691
454	341	3779	-20	-34	4	-30	164	144	654	51015	654	57227709
426	337	3793	-18	-35	-10	-29	163	155	655	51069	655	57227709
428	331	3787	-19	-34	-21	-29	163	155	656	51171	656	57227713
460	315	3795	-18	-31	68	-34	160	144	657	51225	657	57227713
433	323	3767	-21	-34	-13	-34	160	144	658	51327	658	57227733
448	332	3792	-16	-34	44	-31	157	149	659	51381	659	57227734
432	320	3787	-15	-34	48	-31	157	149	660	51483	660	57227735
444	326	3802	-19	-33	30	-31	167	149	661	51537	661	57227738
445	336	3806	-19	-34	-20	-31	167	149	662	51639	662	57227738
445	322	3808	-18	-36	-5	-28	162	150	663	51693	663	57227758
435	325	3788	-21	-35	12	-28	162	150	664	51795	664	57227758
448	327	3808	-19	-32	-6	-31	163	153	665	51849	665	57227760
431	319	3775	-20	-34	36	-31	163	153	666	51951	666	57227761
445	326	3771	-23	-35	4	-31	163	143	667	52005	667	57227762
452	342	3802	-20	-36	32	-31	163	143	668	52107	668	57227783
413	337	3782	-16	-32	37	-32	160	150	669	52161	669	57227783
428	328	3793	-20	-31	31	-32	160	150	670	52263	670	57227785
441	336	3788	-21	-33	25	-32	166	146	671	52317	671	57227787
438	342	3761	-22	-36	-2	-32	166	146	672	52419	672	57227787
420	337	3782	-22	-37	21	-34	162	146	673	52473	673	57227807
437	324	3767	-21	-33	49	-34	162	146	674	52575	674	57227811
444	335	3771	-19	-32	-10	-32	160	148	675	52629	675	57227811
436	332	3772	-19	-34	10	-32	160	148	676	52731	676	57227811
449	326	3805	-16	-35	66	-35	161	153	677	52785	677	57227811
436	318	3796	-19	-33	20	-35	161	153	678	52887	678	57227833
431	331	3771	-17	-31	-39	-31	159	151	679	52941	679	57227833
447	327	3784	-22	-36	12	-31	159	151	680	53043	680	57227836
449	343	3768	-19	-33	-12	-34	160	150	681	53097	681	57227837
433	322	3763	-18	-34	-10	-34	160	150	682	53199	682	57227837
432	317	3760	-20	-35	14	-29	167	149	683	53253	683	57227858
439	332	3784	-22	-35	34	-29	167	149	684	53355	684	57227858
450	336	3777	-17	-34	-23	-28	168	150	685	53409	685	57227860
458	317	3772	-16	-36	31	-28	168	150	686	53511	686	57227861
450	333	3807	-19	-34	28	-34	166	150	687	53565	687	57227862
445	325	3797	-17	-34	10	-34	166	150	688	53667	688	57227883
458	348	3809	-15	-35	47	-34	160	150	689	53721	689	57227885
453	332	3774	-23	-32	11	-34	160	150	690	53823	690	57227886
427	328	3790	-19	-36	2	-30	160	152	691	53877	691	57227887
444	336	3787	-19	-34	28	-30	160	152	692	53979	692	57227889
450	340	3798	-18	-34	1	-31	167	147	693	54033	693	57227908
434	327	3789	-21	-30	48	-31	167	147	694	54135	694	57227908
449	335	3782	-17	-32	-8	-29	165	147	695	54189	695	57227911
456	344	3781	-17	-34	8	-29	165	147	696	54291	696	57227911
435	325	3783	-17	-32	5	-31	165	149	697	54345	697	57227914
460	343	3795	-18	-33	-12	-31	165	149	698	54447	698	57227933
462	324	3785	-16	-34	36	-34	164	154	699	54501	699	57227933
422	337	3795	-18	-33	34	-34	164	154	700	54603	700	57227936
438	339	3788	-20	-33	34	-33	155	151	701	54657	701	57227937
456	334	3790	-16	-34	-4	-33	155	151	702	54759	702	57227939
449	338	3809	-17	-35	14	-31	161	147	703	54813	703	57227958
453	326	3794	-18	-34	55	-31	161	147	704	54915	704	57227958
432	322	3781	-19	-34	17	-35	165	147	705	54969	705	57227961
457	341	3787	-19	-36	3	-35	165	147	706	55071	706	57227962
428	335	3794	-18	-34	23	-32	168	144	707	55125	707	57227964
441	320	3779	-16	-35	38	-32	168	144	708	55227	708	57227969
445	334	3801	-14	-32	29	-34	162	144	709	55282	709	57227969
431	335	3784	-18	-33	-29	-34	162	144	710	55384	710	57227983
426	336	3803	-17	-35	1	-33	165	153	711	55438	711	57227983
452	337	3800	-18	-35	68	-33	165	153	712	55540	712	57227985
436	319	3779	-16	-36	-17	-34	168	140	713	55594	713	57228017
438	322	3790	-17	-34	19	-34	168	140	714	55696	714	57228018
441	340	3796	-16	-34	-19	-26	162	152	715	55750	715	57228021
449	345	3786	-18	-32	25	-26	162	152	716	55852	716	57228021
436	330	3781	-17	-33	22	-31	165	145	717	55906	717	57228024
439	323	3795	-18	-32	4	-31	165	145	718	56008	718	57228026
449	332	3798	-18	-35	52	-33	167	147	719	56063	719	57228026
445	325	3780	-18	-32	-2	-33	167	147	720	56165	720	57228029
449	333	3783	-17	-35	53	-36	164	144	721	56219	721	57228029
451	319	3787	-20	-32	34	-36	164	144	722	56321	722	57228049
438	336	3796	-16	-33	-23	-29	159	153	723	56375	723	57228050
454	344	3770	-18	-36	35	-29	159	153	724	56477	724	57228051
457	354	3786	-16	-36	-17	-33	169	147	725	56531	725	57228053
430	325	3789	-17	-34	-23	-33	169	147	726	56633	726	57228053
444	329	3777	-19	-36	13	-37	165	145	727	56687	727	57228072
445	335	3790	-21	-34	-11	-37	165	145	728	56789	728	57228096
452	326	3795	-17	-35	21	-32	166	152	729	56843	729	57228101
441	329	3789	-16	-36	-17	-32	166	152	730	56945	730	57228102
442	335	3758	-18	-36	0	-38	166	148	731	56999	731	57228103
429	343	3785	-17	-33	33	-38	166	148	732	57101	732	57228113
453	326	3768	-17	-34	-10	-32	158	152	733	57155	733	57228114
453	314	3782	-17	-34	12	-32	158	152	734	57257	734	57228115
433	320	3801	-21	-33	-14	-32	162	148	735	57311	735	57228117
453	332	3781	-19	-36	38	-32	162	148	736	57413	736	57228117
448	333	3774	-14	-36	81	-32	164	140	737	57467	737	57228120
448	331	3794	-17	-37	-31	-32	164	140	738	57569	738	57228122
439	318	3793	-20	-35	45	-29	165	145	739	57623	739	57228123
448	330	3786	-17	-33	7	-29	165	145	740	57725	740	57228138
445	327	3776	-19	-35	6	-36	158	146	741	57779	741	57228138
430	339	3779	-18	-33	-11	-36	158	146	742	57881	742	57228141
444	331	3824	-19	-35	-27	-27	161	149	743	57935	743	57228142
428	327	3769	-20	-32	62	-27	161	149	744	58037	744	57228145
447	331	3813	-18	-31	35	-32	158	142	745	58091	745	57228149
452	342	3804	-18	-33	25	-32	158	142	746	58193	746	57228156
439	341	3786	-24	-36	-22	-33	163	149	747	58247	747	57228163
432	319	3812	-23	-33	19	-33	163	149	748	58349	748	57228163
470	336	3793	-19	-30	38	-33	163	153	749	58403	749	57228165
452	329	3772	-19	-32	9	-33	163	153	750	58505	750	57228174
449	324	3789	-18	-35	1	-40	164	150	751	58559	751	57228176
466	339	3761	-18	-34	1	-40	164	150	752	58661	752	57228187
432	321	3799	-18	-33	-63	-28	160	150	753	58715	753	57228188
434	336	3790	-18	-33	6	-28	160	150	754	58817	754	57228198
403	331	3815	-17	-35	-7	-29	159	147	755	58871	755	57228198
432	330	3782	-20	-35	40	-29	159	147	756	58973	756	57228215
445	344	3789	-20	-33	20	-31	161	151	757	59027	757	57228215
454	327	3782	-22	-31	-41	-31	161	151	758	59129	758	57228215
451	333	3792	-21	-34	29	-30	164	148	759	59183	759	57228223
441	334	3799	-16	-34	-20	-30	164	148	760	59285	760	57228226
446	319	3795	-15	-37	18	-33	161	151	761	59339	761	57228226
430	338	3811	-18	-34	34	-33	161	151	762	59441	762	57228264
444	321	3796	-22	-33	23	-32	162	162	763	59495	763	57228280
450	332	3783	-19	-34	28	-32	162	162	764	59597	764	57228281
459	315	3776	-19	-34	20	-33	165	147	765	59651	765	57228282
439	345	3788	-21	-32	23	-33	165	147	766	59753	766	57228282
443	335	3784	-22	-32	84	-28	166	142	767	59807	767	57228284
441	316	3785	-15	-34	22	-28	166	142	768	59909	768	57228285
446	318	3805	-17	-35	40	-31	163	145	769	59963	769	57228289
446	331	3780	-16	-34	-15	-31	163	145	770	60065	770	57228289
460	331	3780	-18	-35	55	-30	164	148	771	60119	771	57228291
452	343	3791	-19	-37	36	-30	164	148	772	60221	772	57228293
447	339	3803	-19	-34	25	-32	166	150	773	60275	773	57228296
455	313	3779	-19	-34	3	-32	166	150	774	60377	774	57228296
457	328	3834	-18	-35	27	-35	163	143	775	60431	775	57228297
450	336	3795	-16	-36	-43	-35	163	143	776	60533	776	57228299
451	347	3770	-19	-34	18	-22	162	148	777	60587	777	57228313
458	321	3790	-16	-35	-6	-22	162	148	778	60689	778	57228313
446	332	3776	-20	-37	63	-29	163	151	779	60743	779	57228320
446	330	3795	-18	-36	-4	-29	163	151	780	60845	780	57228320
432	320	3774	-19	-33	39	-31	161	145	781	60899	781	57228337
431	327	3803	-19	-33	29	-31	161	145	782	61001	782	57228338
433	316	3781	-16	-33	-30	-32	166	150	783	61055	783	57228338
429	328	3797	-18	-35	0	-32	166	150	784	61157	784	57228346
430	341	3789	-17	-32	6	-36	162	148	785	61211	785	57228349
457	340	3796	-16	-34	13	-36	162	148	786	61313	786	57228362
443	326	3761	-18	-35	69	-31	159	149	787	61367	787	57228363
437	337	3777	-18	-34	11	-31	159	149	788	61469	788	57228365
434	329	3796	-16	-34	27	-32	160	144	789	61523	789	57228368
432	332	3799	-17	-33	-12	-32	160	144	790	61625	790	57228368
440	342	3782	-16	-36	6	-30	162	148	791	61679	791	57228387
431	329	3780	-18	-31	54	-30	162	148	792	61781	792	57228388
440	323	3806	-20	-38	72	-30	160	152	793	61835	793	57228390
431	330	3790	-16	-34	109	-30	160	152	794	61937	794	57228391
448	343	3785	-16	-37	18	-32	164	148	795	61991	795	57228392
444	341	3800	-18	-35	41	-32	164	148	796	62093	796	57228414
459	339	3781	-21	-34	43	-31	163	151	797	62147	797	57228414
450	341	3769	-16	-33	36	-31	163	151	798	62249	798	57228415
455	324	3775	-15	-32	36	-35	161	157	799	62303	799	57228416
444	333	3800	-19	-33	16	-35	161	157	800	62405	800	57228417
453	342	3779	-18	-34	1	-29	169	147	801	62459	801	57228438
441	326	3794	-21	-35	1	-29	169	147	802	62561	802	57228438
452	320	3817	-20	-34	4	-28	156	152	803	62615	803	57228441
457	320	3790	-20	-31	43	-28	156	152	804	62717	804	57228442
454	342	3778	-19	-36	25	-34	168	148	805	62771	805	57228443
450	331	3784	-20	-36	40	-34	168	148	806	62873	806	57228462
431	320	3788	-19	-34	64	-29	163	153	807	62927	807	57228468
427	331	3786	-18	-36	4	-29	163	153	808	63029	808	57228468
428	331	3786	-20	-31	10	-31	161	149	809	63083	809	57228469
450	332	3801	-20	-35	26	-31	161	149	810	63185	810	57228469
447	343	3797	-18	-36	35	-33	161	145	811	63239	811	57228487
432	333	3802	-18	-34	12	-33	161	145	812	63341	812	57228505
451	334	3812	-17	-35	4	-23	161	149	813	63395	813	57228513
435	337	3799	-20	-36	33	-23	161	149	814	63497	814	57228517
442	333	3791	-21	-36	19	-33	161	145	815	63551	815	57228528
452	333	3791	-19	-34	15	-33	161	145	816	63653	816	57228530
434	338	3792	-19	-33	41	-33	163	147	817	63707	817	57228532
436	331	3797	-20	-35	-22	-33	163	147	818	63809	818	57228533
452	323	3789	-17	-33	85	-28	160	150	819	63863	819	57228549
442	338	3787	-16	-33	22	-28	160	150	820	63965	820	57228577
437	336	3791	-17	-34	23	-33	163	149	821	64019	821	57228578
445	338	3787	-20	-37	42	-33	163	149	822	64121	822	57228584
437	321	3777	-18	-33	16	-35	159	153	823	64175	823	57228585
441	333	3777	-19	-33	41	-35	159	153	824	64277	824	57228586
448	348	3792	-17	-34	51	-35	161	153	825	64331	825	57228586
440	333	3783	-18	-31	-18	-35	161	153	826	64433	826	57228588
438	338	3812	-17	-33	29	-37	161	145	827	64487	827	57228589
428	329	3791	-20	-35	44	-37	161	145	828	64589	828	57228592
427	341	3780	-19	-34	65	-25	161	149	829	64643	829	57228592
432	330	3791	-17	-36	94	-25	161	149	830	64745	830	57228593
452	350	3787	-20	-36	26	-34	160	146	831	64799	831	57228595
433	335	3792	-21	-37	18	-34	160	146	832	64901	832	57228597
431	330	3764	-21	-36	32	-37	165	147	833	64955	833	57228597
420	330	3795	-16	-32	38	-37	165	147	834	65057	834	57228630
456	326	3791	-19	-34	-4	-31	167	149	835	65111	835	57228631
452	328	3783	-18	-34	-16	-31	167	149	836	65213	836	57228634
414	324	3805	-20	-33	24	-27	161	151	837	65267	837	57228637
450	322	3773	-15	-34	32	-27	161	151	838	65369	838	57228638
439	325	3772	-18	-32	31	-30	166	148	839	65423	839	57228639
443	321	3788	-18	-35	1	-30	166	148	840	65525	840	57228644
438	313	3784	-16	-34	65	-32	162	150	841	65579	841	57228644
444	330	3800	-16	-35	41	-32	162	150	842	65681	842	57228647
442	325	3785	-20	-35	30	-32	162	156	843	65735	843	57228647
456	326	3796	-19	-31	56	-32	162	156	844	65837	844	57228648
449	342	3779	-19	-35	-5	-28	162	146	845	65891	845	57228648
449	321	3824	-18	-34	-21	-28	162	146	846	65993	846	57228651
445	338	3809	-25	-31	29	-30	162	146	847	66047	847	57228651
463	343	3804	-23	-34	-18	-30	162	146	848	66149	848	57228663
440	324	3789	-16	-33	60	-30	164	154	849	66203	849	57228687
451	333	3813	-17	-34	25	-30	164	154	850	66305	850	57228689
448	343	3798	-15	-34	26	-35	167	151	851	66359	851	57228692
448	333	3781	-21	-35	44	-35	167	151	852	66461	852	57228693
453	348	3776	-15	-33	49	-31	159	153	853	66515	853	57228694
446	341	3801	-14	-35	29	-31	159	153	854	66617	854	57228695
463	335	3780	-19	-31	-19	-31	157	149	855	66671	855	57228695
440	324	3791	-18	-34	37	-31	157	149	856	66773	856	57228696
449	331	3804	-20	-33	55	-32	166	146	857	66827	857	57228697
436	335	3809	-22	-32	5	-32	166	146	858	66929	858	57228713
435	326	3781	-15	-33	46	-29	161	153	859	66983	859	57228713
453	333	3781	-16	-32	-7	-29	161	153	860	67085	860	57228718
437	338	3783	-16	-32	-18	-29	165	153	861	67139	861	57228718
443	332	3793	-17	-35	21	-29	165	153	862	67241	862	57228721
446	336	3801	-18	-33	-38	-27	163	153	863	67295	863	57228738
430	329	3787	-19	-33	93	-27	163	153	864	67397	864	57228738
441	330	3789	-16	-32	52	-36	160	146	865	67451	865	57228742
448	326	3795	-17	-33	33	-36	160	146	866	67553	866	57228746
450	325	3794	-18	-32	61	-34	166	150	867	67607	867	57228764
448	334	3820	-19	-33	-59	-34	166	150	868	67709	868	57228764
446	347	3774	-17	-36	39	-34	164	152	869	67763	869	57228765
435	327	3802	-20	-33	-26	-34	164	152	870	67865	870	57228766
455	325	3776	-18	-34	2	-28	166	146	871	67919	871	57228767
432	332	3790	-20	-33	37	-28	166	146	872	68021	872	57228788
448	344	3765	-18	-35	37	-32	158	148	873	68075	873	57228788
424	343	3819	-17	-35	23	-32	158	148	874	68177	874	57228790
432	330	3794	-18	-30	52	-33	163	151	875	68231	875	57228792
442	323	3798	-16	-34	41	-33	163	151	876	68333	876	57228792
446	324	3796	-19	-32	90	-34	162	144	877	68387	877	57228813
435	324	3787	-12	-35	11	-34	162	144	878	68489	878	57228813
434	321	3819	-18	-34	79	-31	165	153	879	68543	879	57228815
442	329	3786	-18	-33	-7	-31	165	153	880	68645	880	57228817
436	321	3799	-19	-35	19	-32	160	150	881	68699	881	57228817
442	338	3806	-20	-35	14	-32	160	150	882	68801	882	57228838
434	332	3796	-18	-33	-10	-33	157	153	883	68855	883	57228838
444	318	3791	-20	-33	27	-33	157	153	884	68957	884	57228840
430	343	3781	-17	-35	2	-30	160	152	885	69011	885	57228842
440	336	3798	-22	-34	42	-30	160	152	886	69113	886	57228842
428	339	3803	-21	-34	30	-34	164	146	887	69167	887	57228863
445	328	3787	-21	-31	29	-34	164	146	888	69269	888	57228863
432	335	3782	-20	-33	62	-34	162	152	889	69323	889	57228865
445	333	3759	-18	-33	58	-34	162	152	890	69425	890	57228896
450	328	3800	-20	-33	39	-32	170	146	891	69479	891	57228898
447	337	3777	-19	-36	10	-32	170	146	892	69581	892	57228898
427	320	3784	-18	-36	23	-30	160	150	893	69636	893	57228899
437	334	3755	-20	-37	42	-30	160	150	894	69737	894	57228900
437	335	3790	-20	-36	-40	-36	162	148	895	69791	895	57228914
453	324	3802	-17	-36	19	-36	162	148	896	69893	896	57228914
439	322	3813	-17	-34	6	-37	165	145	897	69947	897	57228917
455	343	3799	-23	-33	-23	-37	165	145	898	70049	898	57228918
426	334	3780	-18	-34	59	-25	163	149	899	70103	899	57228921
443	326	3813	-19	-32	-17	-25	163	149	900	70205	900	57228921
457	341	3808	-18	-32	14	-34	164	144	901	70259	901	57228922
423	335	3793	-19	-34	28	-34	164	144	902	70361	902	57228940
439	345	3792	-21	-34	18	-27	167	147	903	70416	903	57228941
450	349	3793	-17	-37	68	-27	167	147	904	70517	904	57228943
445	337	3791	-15	-34	1	-36	158	152	905	70571	905	57228943
425	321	3795	-20	-34	35	-36	158	152	906	70673	906	57228945
433	325	3782	-20	-32	1	-32	164	152	907	70727	907	57228963
435	328	3752	-18	-34	-20	-32	164	152	908	70829	908	57228963
441	341	3794	-18	-33	16	-28	160	152	909	70883	909	57228966
456	345	3780	-17	-37	11	-28	160	152	910	70985	910	57228967
435	332	3790	-18	-35	-7	-27	161	151	911	71039	911	57228969
430	330	3809	-22	-32	35	-27	161	151	912	71141	912	57228974
412	329	3801	-20	-34	26	-32	166	152	913	71195	913	57228974
445	334	3802	-21	-32	79	-32	166	152	914	71297	914	57228990
456	321	3785	-19	-36	20	-30	158	154	915	71351	915	57228990
451	337	3784	-18	-34	24	-30	158	154	916	71453	916	57228992
451	328	3777	-16	-35	41	-37	163	151	917	71507	917	57228999
428	330	3799	-15	-32	23	-37	163	151	918	71609	918	57228999
443	332	3808	-17	-33	105	-29	161	151	919	71663	919	57229015
462	335	3784	-16	-35	18	-29	161	151	920	71765	920	57229017
447	330	3768	-18	-36	46	-27	163	151	921	71819	921	57229018
434	326	3775	-16	-36	7	-27	163	151	922	71921	922	57229023
437	320	3795	-19	-34	-25	-33	165	147	923	71975	923	57229025
436	329	3777	-17	-34	2	-33	165	147	924	72077	924	57229040
452	337	3754	-17	-34	-45	-32	162	156	925	72131	925	57229040
440	325	3757	-19	-35	13	-32	162	156	926	72233	926	57229042
446	328	3778	-21	-34	54	-33	165	153	927	72287	927	57229044
453	348	3778	-17	-31	9	-33	165	153	928	72389	928	57229044
441	322	3784	-16	-30	13	-35	165	151	929	72443	929	57229066
442	340	3786	-19	-34	25	-35	165	151	930	72545	930	57229067
428	331	3794	-16	-29	51	-34	158	154	931	72599	931	57229069
432	330	3799	-19	-33	32	-34	158	154	932	72701	932	57229070
415	336	3792	-20	-35	-13	-33	165	143	933	72755	933	57229070
443	333	3784	-18	-35	35	-33	165	143	934	72857	934	57229090
451	335	3780	-14	-34	-7	-30	158	150	935	72911	935	57229091
437	310	3784	-17	-34	33	-30	158	150	936	73013	936	57229096
454	338	3781	-19	-31	23	-32	166	142	937	73067	937	57229096
449	324	3777	-17	-33	18	-32	166	142	938	73169	938	57229096
441	324	3804	-19	-32	46	-29	167	149	939	73223	939	57229114
451	336	3791	-20	-32	28	-29	167	149	940	73325	940	57229114
455	326	3800	-20	-31	24	-29	161	149	941	73379	941	57229118
453	340	3762	-22	-34	11	-29	161	149	942	73481	942	57229118
455	348	3789	-17	-37	7	-25	169	149	943	73535	943	57229121
425	323	3797	-14	-36	47	-25	169	149	944	73637	944	57229139
437	337	3807	-18	-35	1	-32	162	152	945	73691	945	57229139
426	334	3808	-14	-32	40	-32	162	152	946	73793	946	57229144
431	334	3814	-17	-32	78	-36	166	150	947	73847	947	57229159
430	327	3778	-14	-34	30	-36	166	150	948	73949	948	57229165
441	332	3791	-17	-34	38	-30	160	146	949	74003	949	57229166
442	334	3775	-18	-33	47	-30	160	146	950	74105	950	57229166
457	334	3787	-19	-36	12	-30	158	150	951	74159	951	57229168
434	319	3797	-20	-34	28	-30	158	150	952	74261	952	57229168
450	335	3798	-19	-35	15	-29	163	147	953	74315	953	57229170
440	344	3770	-20	-33	45	-29	163	147	954	74417	954	57229189
439	343	3800	-19	-34	-5	-35	161	155	955	74471	955	57229189
449	331	3788	-18	-34	19	-35	161	155	956	74573	956	57229193
441	338	3795	-16	-35	79	-31	163	147	957	74627	957	57229194
433	316	3783	-18	-33	38	-31	163	147	958	74729	958	57229195
445	333	3788	-16	-32	40	-28	154	146	959	74783	959	57229214
443	321	3793	-17	-36	-18	-28	154	146	960	74885	960	57229230
440	322	3794	-18	-35	36	-38	162	148	961	74939	961	57229232
452	326	3772	-16	-35	43	-38	162	148	962	75041	962	57229232
451	327	3789	-19	-34	14	-37	165	147	963	75096	963	57229239
434	328	3768	-19	-32	55	-37	165	147	964	75198	964	57229239
452	323	3789	-19	-34	-9	-30	160	146	965	75252	965	57229240
451	320	3794	-19	-35	13	-30	160	146	966	75354	966	57229243
444	336	3806	-19	-33	-12	-34	160	150	967	75408	967	57229243
445	334	3791	-18	-34	-3	-34	160	150	968	75510	968	57229264
450	334	3804	-21	-37	28	-28	166	154	969	75564	969	57229269
458	317	3789	-17	-36	50	-28	166	154	970	75666	970	57229269
455	326	3780	-18	-34	49	-29	161	151	971	75720	971	57229270
432	341	3761	-19	-31	84	-29	161	151	972	75822	972	57229272
424	339	3792	-21	-36	-13	-33	169	151	973	75876	973	57229289
440	333	3784	-19	-35	41	-33	169	151	974	75978	974	57229295
445	322	3796	-23	-34	33	-28	168	152	975	76032	975	57229301
441	335	3798	-18	-38	-28	-28	168	152	976	76134	976	57229304
439	328	3772	-18	-38	1	-29	161	149	977	76188	977	57229305
447	344	3790	-21	-34	-26	-29	161	149	978	76290	978	57229313
442	338	3809	-17	-31	105	-31	163	147	979	76344	979	57229314
469	353	3810	-16	-33	-28	-31	163	147	980	76446	980	57229315
429	338	3808	-22	-34	35	-27	161	153	981	76500	981	57229316
436	339	3786	-20	-33	45	-27	161	153	982	76602	982	57229317
427	335	3799	-17	-34	0	-34	168	150	983	76656	983	57229338
439	344	3805	-17	-33	53	-34	168	150	984	76758	984	57229343
441	327	3791	-18	-34	40	-29	167	145	985	76812	985	57229359
437	335	3776	-15	-33	18	-29	167	145	986	76914	986	57229359
441	339	3779	-16	-33	24	-36	162	154	987	76968	987	57229360
457	353	3809	-16	-32	35	-36	162	154	988	77070	988	57229362
461	336	3797	-16	-34	47	-33	167	145	989	77124	989	57229362
434	325	3786	-18	-36	34	-33	167	145	990	77226	990	57229362
439	336	3787	-18	-31	29	-30	160	150	991	77280	991	57229363
440	326	3793	-20	-32	57	-30	160	150	992	77382	992	57229365
451	340	3779	-18	-35	-34	-37	163	143	993	77437	993	57229398
434	333	3776	-17	-36	16	-37	163	143	994	77539	994	57229398
447	342	3796	-20	-35	24	-37	157	151	995	77593	995	57229401
455	331	3787	-18	-34	23	-37	157	151	996	77695	996	57229402
442	332	3775	-17	-33	12	-30	170	148	997	77749	997	57229405
447	331	3788	-18	-34	8	-30	170	148	998	77851	998	57229405
447	331	3814	-18	-32	2	-30	164	146	999	77905	999	57229406
443	327	3787	-17	-33	5	-30	164	146	1000	78007	1000	57229409
436	332	3799	-21	-34	37	-34	160	148	1001	78061	1001	57229410
456	338	3774	-18	-33	43	-34	160	148	1002	78163	1002	57229411
457	345	3773	-19	-32	9	-29	157	153	1003	78217	1003	57229434
439	342	3780	-18	-33	69	-29	157	153	1004	78319	1004	57229434
427	321	3793	-20	-31	13	-32	162	152	1005	78373	1005	57229437
443	336	3794	-20	-30	15	-32	162	152	1006	78475	1006	57229438
465	342	3810	-20	-35	-7	-32	166	150	1007	78529	1007	57229440
442	330	3789	-20	-30	-2	-32	166	150	1008	78631	1008	57229458
434	342	3778	-18	-33	32	-31	157	151	1009	78685	1009	57229458
436	323	3790	-21	-33	-15	-31	157	151	1010	78787	1010	57229461
463	325	3789	-24	-32	21	-33	163	151	1011	78841	1011	57229462
448	337	3793	-22	-35	36	-33	163	151	1012	78943	1012	57229464
444	343	3787	-21	-34	-50	-32	158	150	1013	78997	1013	57229483
440	335	3780	-20	-33	-7	-32	158	150	1014	79099	1014	57229487
439	324	3768	-19	-36	40	-30	160	152	1015	79153	1015	57229487
435	337	3783	-21	-32	2	-30	160	152	1016	79255	1016	57229488
430	316	3796	-21	-33	27	-30	164	146	1017	79309	1017	57229489
439	330	3781	-17	-34	14	-30	164	146	1018	79411	1018	57229533
448	314	3778	-19	-34	43	-34	162	148	1019	79465	1019	57229533
437	338	3781	-21	-36	-31	-34	162	148	1020	79567	1020	57229537
448	309	3786	-19	-32	37	-33	163	151	1021	79622	1021	57229537
447	338	3779	-19	-33	0	-33	163	151	1022	79724	1022	57229539
440	325	3802	-22	-35	49	-33	167	151	1023	79778	1023	57229540
442	326	3776	-19	-34	74	-33	167	151	1024	79880	1024	57229541
448	347	3822	-21	-33	-5	-31	165	147	1025	79934	1025	57229559
442	318	3802	-20	-38	33	-31	165	147	1026	80036	1026	57229560
457	339	3789	-24	-36	39	-38	166	150	1027	80090	1027	57229562
430	319	3772	-21	-34	-42	-38	166	150	1028	80192	1028	57229562
447	335	3788	-16	-33	66	-31	161	145	1029	80246	1029	57229566
434	335	3793	-18	-37	-26	-31	161	145	1030	80348	1030	57229567
450	320	3756	-16	-34	-17	-33	165	147	1031	80402	1031	57229567
445	323	3782	-17	-31	11	-33	165	147	1032	80504	1032	57229583
454	332	3810	-21	-33	1	-34	158	146	1033	80558	1033	57229583
456	330	3775	-20	-34	22	-34	158	146	1034	80660	1034	57229585
448	339	3812	-25	-31	17	-32	162	150	1035	80714	1035	57229586
447	330	3776	-20	-35	-15	-32	162	150	1036	80816	1036	57229587
441	328	3814	-19	-36	-12	-35	163	149	1037	80870	1037	57229590
447	324	3799	-20	-30	40	-35	163	149	1038	80972	1038	57229591
449	331	3794	-18	-32	63	-31	163	147	1039	81026	1039	57229608
433	331	3798	-20	-34	-41	-31	163	147	1040	81128	1040	57229609
448	335	3780	-18	-35	0	-33	165	153	1041	81182	1041	57229609
424	330	3818	-17	-33	-18	-33	165	153	1042	81284	1042	57229615
437	331	3795	-21	-32	-25	-31	163	145	1043	81339	1043	57229615
442	311	3796	-19	-33	39	-31	163	145	1044	81441	1044	57229618
439	323	3803	-16	-33	-26	-28	160	152	1045	81495	1045	57229632
456	326	3809	-15	-34	39	-28	160	152	1046	81597	1046	57229632
435	319	3774	-21	-31	27	-32	164	144	1047	81651	1047	57229640
411	330	3810	-18	-35	8	-32	164	144	1048	81753	1048	57229641
433	327	3796	-17	-34	66	-27	161	149	1049	81807	1049	57229643
433	345	3791	-19	-31	31	-27	161	149	1050	81909	1050	57229657
431	333	3798	-19	-36	23	-29	157	151	1051	81963	1051	57229657
429	334	3796	-22	-34	12	-29	157	151	1052	82065	1052	57229664
442	333	3800	-21	-31	1	-39	163	149	1053	82119	1053	57229664
437	339	3780	-19	-37	48	-39	163	149	1054	82221	1054	57229681
443	340	3788	-17	-34	10	-33	163	149	1055	82275	1055	57229682
433	319	3826	-20	-31	19	-33	163	149	1056	82377	1056	57229682
433	330	3772	-20	-31	-19	-35	161	147	1057	82431	1057	57229689
467	329	3808	-23	-31	39	-35	161	147	1058	82533	1058	57229690
448	316	3800	-19	-33	14	-35	163	149	1059	82587	1059	57229706
429	345	3814	-17	-32	52	-35	163	149	1060	82689	1060	57229707
445	339	3802	-15	-35	-11	-29	165	155	1061	82743	1061	57229709
457	336	3771	-17	-35	0	-29	165	155	1062	82845	1062	57229711
446	335	3777	-18	-31	-13	-32	158	148	1063	82899	1063	57229711
431	321	3796	-19	-33	25	-32	158	148	1064	83001	1064	57229732
449	330	3797	-16	-33	32	-29	157	151	1065	83055	1065	57229733
430	341	3777	-18	-33	17	-29	157	151	1066	83157	1066	57229736
438	339	3789	-18	-34	33	-35	169	149	1067	83211	1067	57229736
447	323	3777	-17	-35	35	-35	169	149	1068	83313	1068	57229737
439	335	3790	-19	-33	27	-33	169	147	1069	83367	1069	57229756
450	324	3796	-20	-33	-29	-33	169	147	1070	83469	1070	57229758
435	333	3786	-20	-33	50	-30	162	152	1071	83523	1071	57229760
443	338	3803	-17	-32	40	-30	162	152	1072	83625	1072	57229760
428	338	3775	-20	-33	12	-34	166	154	1073	83679	1073	57229761
422	312	3787	-21	-30	25	-34	166	154	1074	83781	1074	57229781
429	322	3785	-24	-31	28	-31	159	151	1075	83835	1075	57229782
429	326	3797	-22	-34	34	-31	159	151	1076	83937	1076	57229784
427	322	3805	-22	-32	95	-30	162	150	1077	83991	1077	57229785
441	335	3782	-23	-32	42	-30	162	150	1078	84093	1078	57229785
448	337	3784	-18	-35	16	-31	165	151	1079	84147	1079	57229806
455	338	3794	-16	-37	-27	-31	165	151	1080	84249	1080	57229807
438	333	3793	-21	-30	3	-29	163	151	1081	84303	1081	57229810
443	352	3780	-17	-33	-14	-29	163	151	1082	84405	1082	57229810
420	335	3774	-21	-32	-7	-34	170	146	1083	84459	1083	57229811
441	330	3762	-22	-33	47	-34	170	146	1084	84561	1084	57229831
455	327	3783	-17	-35	11	-33	159	151	1085	84615	1085	57229831
430	325	3814	-19	-34	22	-33	159	151	1086	84717	1086	57229835
433	324	3804	-22	-32	48	-32	164	148	1087	84771	1087	57229835
435	340	3811	-21	-31	19	-32	164	148	1088	84873	1088	57229837
423	314	3797	-15	-32	35	-33	159	147	1089	84927	1089	57229856
458	329	3783	-17	-34	7	-33	159	147	1090	85029	1090	57229857
428	322	3790	-21	-33	13	-32	158	154	1091	85083	1091	57229860
430	343	3759	-23	-34	55	-32	158	154	1092	85185	1092	57229860
451	336	3800	-20	-33	20	-30	162	148	1093	85240	1093	57229863
459	336	3790	-18	-34	30	-30	162	148	1094	85342	1094	57229881
446	334	3799	-18	-35	-30	-34	164	150	1095	85396	1095	57229882
452	329	3788	-20	-32	-4	-34	164	150	1096	85498	1096	57229885
448	352	3782	-20	-34	24	-32	162	152	1097	85552	1097	57229888
445	323	3786	-17	-33	15	-32	162	152	1098	85654	1098	57229889
427	322	3801	-17	-34	40	-34	158	146	1099	85708	1099	57229907
437	332	3767	-18	-34	-15	-34	158	146	1100	85810	1100	57229907
435	325	3792	-22	-34	-12	-34	160	150	1101	85864	1101	57229910
452	339	3796	-18	-31	27	-34	160	150	1102	85966	1102	57229911
451	333	3773	-20	-32	39	-35	163	147	1103	86020	1103	57229913
458	352	3802	-19	-33	28	-35	163	147	1104	86122	1104	57229931
440	336	3791	-19	-34	30	-34	166	150	1105	86176	1105	57229932
447	330	3779	-16	-34	24	-34	166	150	1106	86278	1106	57229935
442	339	3815	-20	-33	23	-37	161	149	1107	86332	1107	57229935
452	332	3771	-17	-32	15	-37	161	149	1108	86434	1108	57229938
450	323	3804	-18	-31	70	-31	161	151	1109	86488	1109	57229957
436	337	3782	-23	-36	36	-31	161	151	1110	86590	1110	57229957
441	325	3777	-20	-36	43	-35	165	153	1111	86644	1111	57229960
455	326	3777	-20	-32	55	-35	165	153	1112	86746	1112	57229961
429	343	3818	-19	-31	-44	-28	164	150	1113	86800	1113	57229965
431	316	3797	-17	-32	39	-28	164	150	1114	86902	1114	57229966
451	327	3810	-17	-33	13	-34	160	150	1115	86956	1115	57229967
427	335	3791	-19	-33	2	-34	160	150	1116	87058	1116	57229981
451	313	3794	-18	-31	30	-34	160	156	1117	87112	1117	57229982
443	330	3799	-19	-33	17	-34	160	156	1118	87214	1118	57229989
441	330	3821	-18	-36	68	-28	162	152	1119	87268	1119	57229989
428	345	3814	-15	-35	28	-28	162	152	1120	87370	1120	57229993
473	326	3785	-18	-32	35	-27	161	147	1121	87424	1121	57230008
441	341	3792	-21	-36	14	-27	161	147	1122	87526	1122	57230009
438	343	3785	-22	-32	3	-38	162	146	1123	87580	1123	57230014
448	319	3769	-19	-31	22	-38	162	146	1124	87682	1124	57230015
443	336	3826	-14	-32	12	-35	167	145	1125	87736	1125	57230016
426	338	3801	-19	-34	23	-35	167	145	1126	87838	1126	57230035
436	341	3801	-20	-34	-11	-39	167	153	1127	87892	1127	57230035
437	338	3792	-18	-33	37	-39	167	153	1128	87994	1128	57230037
427	317	3776	-18	-33	49	-38	160	150	1129	88048	1129	57230038
447	336	3773	-19	-30	31	-38	160	150	1130	88150	1130	57230041
445	324	3772	-22	-33	42	-31	165	147	1131	88204	1131	57230059
435	339	3770	-20	-37	27	-31	165	147	1132	88306	1132	57230059
446	335	3791	-23	-35	-4	-39	163	143	1133	88360	1133	57230062
428	345	3751	-20	-34	4	-39	163	143	1134	88462	1134	57230062
461	326	3803	-17	-34	1	-34	162	150	1135	88516	1135	57230066
428	343	3797	-21	-33	-19	-34	162	150	1136	88618	1136	57230083
456	325	3777	-19	-35	-33	-30	162	150	1137	88672	1137	57230087
438	337	3753	-15	-35	26	-30	162	150	1138	88774	1138	57230103
456	331	3789	-17	-33	15	-30	164	144	1139	88828	1139	57230105
449	332	3763	-19	-34	52	-30	164	144	1140	88930	1140	57230105
433	333	3806	-18	-34	31	-34	160	154	1141	88984	1141	57230108
451	344	3812	-18	-35	33	-34	160	154	1142	89086	1142	57230108
430	340	3798	-18	-35	1	-33	161	147	1143	89140	1143	57230111
431	318	3775	-16	-35	5	-33	161	147	1144	89242	1144	57230112
429	345	3779	-16	-32	-1	-33	163	147	1145	89296	1145	57230133
463	337	3776	-17	-35	54	-33	163	147	1146	89398	1146	57230133
444	325	3794	-16	-32	12	-27	157	151	1147	89452	1147	57230133
457	344	3780	-20	-30	7	-27	157	151	1148	89554	1148	57230137
440	339	3778	-19	-34	16	-35	167	145	1149	89608	1149	57230137
450	345	3805	-17	-35	47	-35	167	145	1150	89710	1150	57230184
443	323	3809	-16	-32	107	-26	162	152	1151	89764	1151	57230184
432	335	3779	-18	-31	51	-26	162	152	1152	89866	1152	57230186
451	327	3788	-18	-32	36	-31	159	145	1153	89921	1153	57230187
451	333	3795	-22	-35	64	-31	159	145	1154	90022	1154	57230187
457	333	3786	-18	-31	40	-33	167	149	1155	90076	1155	57230191
440	345	3782	-17	-34	-8	-33	167	149	1156	90178	1156	57230191
458	333	3778	-18	-32	26	-32	162	152	1157	90232	1157	57230193
449	333	3793	-19	-35	5	-32	162	152	1158	90334	1158	57230207
451	323	3789	-18	-33	-3	-33	163	147	1159	90388	1159	57230207
437	327	3809	-17	-32	11	-33	163	147	1160	90490	1160	57230210
444	325	3806	-18	-35	32	-34	166	152	1161	90544	1161	57230210
453	343	3778	-19	-33	12	-34	166	152	1162	90646	1162	57230213
453	340	3788	-19	-34	30	-32	164	154	1163	90700	1163	57230215
434	314	3794	-19	-35	-12	-32	164	154	1164	90802	1164	57230216
442	330	3786	-18	-36	-3	-29	161	149	1165	90856	1165	57230233
442	323	3794	-15	-35	-3	-29	161	149	1166	90958	1166	57230236
436	319	3803	-18	-33	24	-32	164	148	1167	91012	1167	57230236
436	322	3778	-20	-33	-22	-32	164	148	1168	91114	1168	57230237
442	343	3786	-21	-35	33	-27	163	151	1169	91168	1169	57230237
419	340	3790	-15	-33	0	-27	163	151	1170	91270	1170	57230257
433	333	3774	-19	-32	21	-32	164	144	1171	91324	1171	57230258
443	327	3775	-15	-32	49	-32	164	144	1172	91426	1172	57230260
445	328	3791	-18	-35	1	-29	157	147	1173	91480	1173	57230260
435	331	3773	-22	-34	8	-29	157	147	1174	91582	1174	57230260
456	327	3805	-17	-34	19	-35	163	145	1175	91636	1175	57230281
439	332	3792	-21	-34	77	-35	163	145	1176	91738	1176	57230282
424	332	3815	-18	-34	63	-31	163	151	1177	91792	1177	57230285
463	344	3791	-14	-33	0	-31	163	151	1178	91894	1178	57230286
452	334	3811	-20	-35	110	-29	163	147	1179	91948	1179	57230288
449	325	3786	-19	-35	57	-29	163	147	1180	92050	1180	57230306
435	333	3783	-19	-35	70	-31	163	153	1181	92104	1181	57230307
428	323	3801	-18	-33	-7	-31	163	153	1182	92206	1182	57230310
440	340	3781	-20	-30	-36	-33	161	153	1183	92260	1183	57230315
428	337	3797	-17	-31	16	-33	161	153	1184	92362	1184	57230315
420	337	3782	-17	-32	-7	-33	169	143	1185	92416	1185	57230318
430	322	3775	-19	-32	28	-33	169	143	1186	92518	1186	57230318
443	346	3753	-20	-31	-4	-34	162	150	1187	92572	1187	57230331
438	340	3788	-20	-35	-12	-34	162	150	1188	92674	1188	57230332
473	329	3803	-24	-34	121	-33	161	153	1189	92728	1189	57230334
442	334	3808	-18	-33	-21	-33	161	153	1190	92830	1190	57230366
454	336	3798	-16	-34	53	-32	164	152	1191	92884	1191	57230367
440	339	3801	-20	-33	-25	-32	164	152	1192	92986	1192	57230370
439	333	3795	-18	-34	-17	-27	165	149	1193	93040	1193	57230370
442	338	3765	-20	-33	45	-27	165	149	1194	93142	1194	57230373
437	327	3769	-21	-33	15	-30	162	150	1195	93196	1195	57230374
452	330	3793	-22	-33	-2	-30	162	150	1196	93298	1196	57230374
437	330	3814	-19	-33	11	-31	165	141	1197	93352	1197	57230377
456	323	3759	-19	-37	12	-31	165	141	1198	93454	1198	57230378
442	336	3809	-19	-34	0	-29	157	149	1199	93508	1199	57230380
438	331	3798	-18	-35	-18	-29	157	149	1200	93610	1200	57230399
440	345	3779	-19	-36	15	-36	164	146	1201	93664	1201	57230399
446	337	3789	-17	-36	-3	-36	164	146	1202	93766	1202	57230403
441	326	3799	-16	-33	37	-32	162	146	1203	93820	1203	57230403
438	327	3799	-18	-35	27	-32	162	146	1204	93922	1204	57230424
452	331	3776	-16	-34	2	-28	166	154	1205	93976	1205	57230425
450	328	3792	-19	-33	28	-28	166	154	1206	94078	1206	57230425
434	313	3785	-18	-34	30	-32	166	152	1207	94132	1207	57230428
440	342	3761	-15	-34	18	-32	166	152	1208	94234	1208	57230428
447	327	3797	-17	-33	51	-32	166	148	1209	94288	1209	57230448
436	344	3788	-18	-36	-10	-32	166	148	1210	94390	1210	57230448
444	335	3786	-20	-34	-14	-30	162	150	1211	94444	1211	57230450
440	323	3807	-21	-32	-17	-30	162	150	1212	94546	1212	57230451
440	320	3812	-19	-33	-33	-36	162	144	1213	94600	1213	57230451
449	336	3795	-19	-35	33	-36	162	144	1214	94702	1214	57230475
441	321	3791	-18	-34	-15	-33	163	149	1215	94756	1215	57230475
444	330	3797	-19	-33	21	-33	163	149	1216	94858	1216	57230477
439	328	3796	-18	-34	35	-34	164	152	1217	94912	1217	57230479
432	343	3791	-20	-38	-3	-34	164	152	1218	95014	1218	57230480
445	339	3779	-17	-35	0	-32	166	148	1219	95069	1219	57230498
459	332	3797	-17	-33	48	-32	166	148	1220	95171	1220	57230499
441	331	3776	-18	-35	109	-31	163	147	1221	95225	1221	57230500
454	329	3799	-21	-33	10	-31	163	147	1222	95327	1222	57230502
455	319	3796	-20	-34	43	-32	162	148	1223	95381	1223	57230502
438	342	3796	-20	-33	31	-32	162	148	1224	95483	1224	57230521
459	333	3793	-17	-33	11	-26	156	148	1225	95537	1225	57230522
441	342	3810	-17	-35	32	-26	156	148	1226	95639	1226	57230524
451	338	3786	-22	-31	11	-28	162	150	1227	95693	1227	57230525
453	323	3775	-20	-33	28	-28	162	150	1228	95795	1228	57230525
447	336	3796	-15	-33	89	-29	165	145	1229	95849	1229	57230547
440	355	3798	-17	-34	-31	-29	165	145	1230	95951	1230	57230548
449	343	3789	-16	-35	52	-32	160	152	1231	96005	1231	57230550
445	334	3785	-19	-32	48	-32	160	152	1232	96107	1232	57230551
434	331	3821	-18	-34	-44	-38	166	146	1233	96161	1233	57230552
441	332	3772	-17	-33	21	-38	166	146	1234	96263	1234	57230572
435	351	3776	-13	-35	3	-31	167	147	1235	96317	1235	57230574
457	323	3757	-19	-35	25	-31	167	147	1236	96419	1236	57230576
449	315	3779	-20	-34	-17	-30	158	152	1237	96473	1237	57230576
441	321	3776	-22	-36	-12	-30	158	152	1238	96575	1238	57230577
446	333	3786	-20	-32	62	-33	163	149	1239	96629	1239	57230597
435	324	3795	-20	-35	48	-33	163	149	1240	96731	1240	57230598
452	338	3807	-19	-32	43	-27	161	151	1241	96785	1241	57230601
417	331	3773	-21	-35	50	-27	161	151	1242	96887	1242	57230601
445	335	3792	-19	-35	28	-29	167	149	1243	96941	1243	57230604
430	354	3776	-17	-34	50	-29	167	149	1244	97043	1244	57230623
466	335	3772	-19	-34	-20	-31	163	149	1245	97097	1245	57230627
447	335	3801	-17	-33	36	-31	163	149	1246	97199	1246	57230628
437	332	3805	-21	-35	25	-34	162	154	1247	97253	1247	57230628
421	321	3777	-19	-35	31	-34	162	154	1248	97355	1248	57230629
441	322	3803	-17	-34	13	-33	163	147	1249	97409	1249	57230648
446	335	3809	-17	-33	35	-33	163	147	1250	97511	1250	57230648
463	346	3793	-16	-32	47	-27	161	147	1251	97565	1251	57230651
440	330	3761	-19	-34	48	-27	161	147	1252	97667	1252	57230652
434	331	3764	-13	-35	42	-30	166	152	1253	97721	1253	57230654
441	342	3784	-15	-34	30	-30	166	152	1254	97823	1254	57230657
433	335	3762	-17	-30	24	-31	167	143	1255	97877	1255	57230657
436	341	3808	-18	-34	38	-31	167	143	1256	97979	1256	57230673
457	324	3786	-21	-35	47	-32	164	154	1257	98033	1257	57230673
447	333	3791	-20	-35	12	-32	164	154	1258	98135	1258	57230675
444	321	3796	-19	-30	18	-32	164	146	1259	98189	1259	57230685
445	337	3787	-20	-33	1	-32	164	146	1260	98291	1260	57230686
445	324	3805	-22	-35	28	-36	158	152	1261	98345	1261	57230697
448	321	3793	-22	-32	-3	-36	158	152	1262	98447	1262	57230697
429	317	3796	-23	-33	11	-33	159	153	1263	98501	1263	57230699
446	336	3783	-16	-35	18	-33	159	153	1264	98603	1264	57230705
458	327	3771	-20	-34	-17	-33	165	149	1265	98657	1265	57230706
449	346	3807	-21	-34	-38	-33	165	149	1266	98759	1266	57230721
433	341	3789	-19	-36	-26	-32	162	152	1267	98813	1267	57230721
437	328	3809	-20	-36	21	-32	162	152	1268	98915	1268	57230726
446	325	3789	-19	-35	21	-28	162	146	1269	98969	1269	57230726
445	324	3792	-21	-34	-44	-28	162	146	1270	99071	1270	57230727
455	333	3790	-18	-36	-2	-31	161	145	1271	99125	1271	57230747
447	331	3786	-21	-31	15	-31	161	145	1272	99227	1272	57230747
440	336	3772	-19	-32	0	-31	165	153	1273	99281	1273	57230751
436	341	3780	-19	-32	23	-31	165	153	1274	99383	1274	57230752
434	336	3805	-18	-33	-18	-29	161	149	1275	99437	1275	57230756
428	332	3785	-16	-33	-2	-29	161	149	1276	99539	1276	57230772
461	337	3785	-18	-34	35	-31	165	155	1277	99593	1277	57230773
433	318	3812	-16	-33	-2	-31	165	155	1278	99695	1278	57230775
442	321	3798	-16	-32	46	-30	166	146	1279	99749	1279	57230776
413	320	3763	-16	-30	33	-30	166	146	1280	99851	1280	57230779
442	326	3806	-19	-31	49	-32	156	154	1281	99905	1281	57230824
449	342	3777	-19	-35	45	-32	156	154	1282	100007	1282	57230826
425	331	3809	-19	-32	72	-29	161	151	1283	100061	1283	57230828
453	334	3780	-20	-34	24	-29	161	151	1284	100163	1284	57230828
452	327	3790	-17	-34	54	-36	168	154	1285	100217	1285	57230830
439	344	3784	-20	-37	9	-36	168	154	1286	100319	1286	57230831
442	334	3776	-21	-30	7	-31	167	149	1287	100373	1287	57230832
441	339	3792	-19	-32	22	-31	167	149	1288	100475	1288	57230846
439	325	3800	-22	-34	49	-33	161	147	1289	100529	1289	57230846
445	340	3790	-23	-35	-1	-33	161	147	1290	100631	1290	57230848
451	336	3790	-19	-32	-7	-30	164	146	1291	100685	1291	57230850
447	326	3814	-23	-33	35	-30	164	146	1292	100787	1292	57230850
439	333	3796	-19	-34	30	-34	164	152	1293	100841	1293	57230854
440	338	3773	-19	-36	73	-34	164	152	1294	100943	1294	57230854
448	325	3789	-17	-33	15	-34	160	150	1295	100997	1295	57230856
447	339	3778	-17	-32	53	-34	160	150	1296	101099	1296	57230871
454	326	3788	-17	-33	20	-35	167	157	1297	101153	1297	57230872
464	343	3795	-18	-34	-18	-35	167	157	1298	101255	1298	57230875
444	326	3798	-18	-36	23	-33	163	143	1299	101309	1299	57230875
439	340	3777	-18	-34	28	-33	163	143	1300	101411	1300	57230896
429	341	3827	-17	-33	21	-25	159	155	1301	101465	1301	57230896
443	343	3795	-20	-35	0	-25	159	155	1302	101567	1302	57230897
427	315	3788	-20	-35	40	-33	161	155	1303	101621	1303	57230900
431	327	3773	-20	-34	-4	-33	161	155	1304	101723	1304	57230900
439	337	3800	-17	-33	-38	-36	168	144	1305	101777	1305	57230921
447	338	3789	-20	-33	13	-36	168	144	1306	101879	1306	57230921
444	338	3799	-18	-31	52	-27	163	149	1307	101933	1307	57230924
436	319	3788	-20	-33	20	-27	163	149	1308	102035	1308	57230925
449	318	3776	-21	-33	60	-33	163	141	1309	102089	1309	57230925
435	346	3781	-21	-34	-51	-33	163	141	1310	102191	1310	57230946
453	322	3785	-20	-33	32	-31	165	145	1311	102245	1311	57230947
424	339	3785	-22	-35	-5	-31	165	145	1312	102347	1312	57230949
439	329	3783	-21	-32	-8	-27	161	149	1313	102401	1313	57230950
449	353	3778	-20	-34	56	-27	161	149	1314	102503	1314	57230951
440	337	3795	-18	-31	-21	-28	166	150	1315	102557	1315	57230972
441	338	3773	-17	-32	19	-28	166	150	1316	102659	1316	57230985
433	325	3796	-18	-32	53	-28	162	150	1317	102713	1317	57230987
424	340	3759	-22	-35	33	-28	162	150	1318	102815	1318	57230987
421	317	3764	-21	-34	46	-32	160	148	1319	102869	1319	57230990
456	340	3773	-17	-34	-7	-32	160	148	1320	102971	1320	57230996
455	335	3794	-17	-34	28	-35	161	153	1321	103025	1321	57230997
443	341	3770	-18	-33	35	-35	161	153	1322	103127	1322	57230999
446	318	3802	-22	-33	18	-28	164	154	1323	103181	1323	57231000
440	325	3807	-20	-33	5	-28	164	154	1324	103283	1324	57231000
442	338	3791	-16	-33	12	-33	159	147	1325	103337	1325	57231008
433	342	3798	-18	-35	-19	-33	159	147	1326	103439	1326	57231008
435	338	3805	-17	-35	-17	-24	162	154	1327	103493	1327	57231010
435	332	3786	-21	-36	48	-24	162	154	1328	103595	1328	57231024
459	324	3798	-20	-31	35	-38	162	150	1329	103649	1329	57231027
438	328	3798	-17	-34	30	-38	162	150	1330	103751	1330	57231033
455	337	3771	-25	-37	31	-30	164	146	1331	103805	1331	57231034
436	322	3794	-23	-35	-32	-30	164	146	1332	103907	1332	57231046
451	324	3781	-23	-35	27	-30	158	156	1333	103961	1333	57231046
447	335	3777	-21	-35	67	-30	158	156	1334	104063	1334	57231047
453	331	3777	-17	-36	-2	-29	163	151	1335	104117	1335	57231058
429	326	3799	-15	-35	-10	-29	163	151	1336	104219	1336	57231058
449	322	3762	-17	-32	33	-36	158	150	1337	104273	1337	57231072
436	326	3772	-19	-32	27	-36	158	150	1338	104375	1338	57231073
434	336	3798	-17	-35	38	-31	163	143	1339	104429	1339	57231075
446	315	3776	-18	-33	31	-31	163	143	1340	104531	1340	57231082
455	336	3799	-18	-33	-22	-33	169	149	1341	104585	1341	57231082
442	332	3787	-18	-33	27	-33	169	149	1342	104687	1342	57231099
445	340	3794	-21	-34	35	-30	156	152	1343	104741	1343	57231099
429	323	3812	-20	-34	-8	-30	156	152	1344	104843	1344	57231101
436	312	3797	-21	-34	-15	-29	167	143	1345	104897	1345	57231107
440	327	3802	-20	-36	10	-29	167	143	1346	104999	1346	57231107
434	330	3797	-17	-35	19	-29	165	145	1347	105053	1347	57231124
421	333	3794	-19	-36	33	-29	165	145	1348	105155	1348	57231124
435	327	3800	-20	-31	63	-32	166	152	1349	105209	1349	57231126
445	322	3799	-18	-34	11	-32	166	152	1350	105311	1350	57231129
441	326	3795	-18	-34	35	-36	162	144	1351	105365	1351	57231129
431	328	3791	-21	-34	13	-36	162	144	1352	105467	1352	57231145
430	339	3779	-20	-34	18	-32	158	152	1353	105521	1353	57231147
433	332	3766	-19	-32	76	-32	158	152	1354	105623	1354	57231148
448	324	3827	-21	-33	34	-35	165	153	1355	105677	1355	57231156
445	341	3796	-21	-32	9	-35	165	153	1356	105779	1356	57231162
440	333	3813	-20	-32	70	-27	165	149	1357	105833	1357	57231166
447	336	3802	-22	-38	10	-27	165	149	1358	105935	1358	57231166
442	333	3772	-19	-36	96	-35	161	149	1359	105989	1359	57231168
430	345	3776	-20	-34	42	-35	161	149	1360	106091	1360	57231185
442	329	3787	-15	-35	5	-35	161	153	1361	106145	1361	57231185
444	346	3787	-19	-30	13	-35	161	153	1362	106247	1362	57231189
448	325	3785	-18	-30	-19	-36	168	150	1363	106301	1363	57231189
435	327	3803	-16	-33	19	-36	168	150	1364	106403	1364	57231209
431	323	3792	-17	-34	55	-38	164	148	1365	106457	1365	57231210
426	329	3795	-18	-36	19	-38	164	148	1366	106559	1366	57231211
439	342	3807	-17	-37	65	-34	164	148	1367	106613	1367	57231214
442	324	3791	-17	-33	56	-34	164	148	1368	106715	1368	57231215
444	348	3800	-17	-34	21	-31	169	149	1369	106769	1369	57231235
446	334	3782	-16	-35	19	-31	169	149	1370	106871	1370	57231236
445	327	3797	-16	-35	29	-38	164	154	1371	106925	1371	57231238
444	318	3798	-17	-34	-4	-38	164	154	1372	107027	1372	57231239
441	328	3770	-19	-34	-15	-36	166	148	1373	107082	1373	57231239
445	336	3788	-16	-36	9	-36	166	148	1374	107184	1374	57231259
425	330	3786	-20	-35	14	-28	160	148	1375	107238	1375	57231259
438	320	3764	-23	-35	15	-28	160	148	1376	107340	1376	57231261
439	341	3795	-17	-32	41	-39	159	145	1377	107394	1377	57231263
442	334	3778	-21	-35	-13	-39	159	145	1378	107496	1378	57231263
431	327	3783	-18	-36	75	-27	159	145	1379	107550	1379	57231284
442	336	3805	-15	-32	-21	-27	159	145	1380	107652	1380	57231284
456	343	3802	-16	-34	55	-36	162	152	1381	107706	1381	57231286
437	335	3800	-20	-33	40	-36	162	152	1382	107808	1382	57231288
439	326	3808	-19	-32	-10	-35	163	147	1383	107862	1383	57231291
442	340	3776	-18	-33	46	-35	163	147	1384	107964	1384	57231309
458	335	3775	-18	-33	20	-36	160	146	1385	108018	1385	57231309
443	341	3790	-17	-36	27	-36	160	146	1386	108120	1386	57231312
436	331	3808	-20	-34	-18	-27	159	147	1387	108174	1387	57231313
455	325	3809	-18	-36	-34	-27	159	147	1388	108276	1388	57231313
435	320	3798	-19	-34	26	-35	165	141	1389	108330	1389	57231333
460	342	3801	-17	-33	-7	-35	165	141	1390	108432	1390	57231336
439	338	3786	-18	-35	55	-30	166	150	1391	108486	1391	57231336
441	322	3777	-17	-37	14	-30	166	150	1392	108588	1392	57231337
456	346	3789	-15	-35	42	-32	164	146	1393	108642	1393	57231337
430	310	3782	-17	-33	53	-32	164	146	1394	108744	1394	57231358
424	331	3803	-18	-33	-14	-27	159	151	1395	108799	1395	57231358
448	339	3788	-18	-33	3	-27	159	151	1396	108901	1396	57231362
442	322	3820	-18	-33	37	-28	164	148	1397	108955	1397	57231362
454	328	3792	-18	-32	-1	-28	164	148	1398	109057	1398	57231364
450	325	3788	-22	-34	72	-31	159	151	1399	109111	1399	57231383
442	339	3789	-21	-34	51	-31	159	151	1400	109213	1400	57231383
444	333	3748	-17	-33	14	-33	157	151	1401	109267	1401	57231386
435	331	3783	-18	-34	-15	-33	157	151	1402	109369	1402	57231387
446	335	3802	-22	-33	28	-28	166	146	1403	109423	1403	57231389
453	327	3773	-19	-32	30	-28	166	146	1404	109525	1404	57231408
449	334	3799	-18	-34	-41	-35	165	151	1405	109579	1405	57231408
454	326	3774	-16	-35	35	-35	165	151	1406	109681	1406	57231411
427	340	3784	-20	-35	13	-32	160	152	1407	109735	1407	57231411
442	350	3796	-19	-35	58	-32	160	152	1408	109837	1408	57231415
433	330	3810	-19	-35	-4	-33	165	147	1409	109891	1409	57231459
437	329	3792	-17	-34	-10	-33	165	147	1410	109993	1410	57231459
427	322	3799	-15	-31	33	-34	170	152	1411	110047	1411	57231463
446	331	3773	-12	-33	65	-34	170	152	1412	110149	1412	57231463
430	331	3797	-18	-33	76	-35	165	151	1413	110203	1413	57231465
434	330	3770	-15	-35	50	-35	165	151	1414	110305	1414	57231467
433	323	3790	-17	-36	-23	-31	165	147	1415	110359	1415	57231467
439	325	3793	-18	-33	41	-31	165	147	1416	110461	1416	57231485
431	325	3788	-20	-35	-47	-34	166	148	1417	110515	1417	57231486
430	331	3766	-14	-35	-1	-34	166	148	1418	110617	1418	57231487
440	327	3788	-19	-35	57	-30	156	148	1419	110671	1419	57231488
454	340	3780	-17	-35	30	-30	156	148	1420	110773	1420	57231489
434	348	3764	-19	-36	51	-35	155	151	1421	110827	1421	57231492
467	323	3788	-23	-35	25	-35	155	151	1422	110929	1422	57231492
430	329	3777	-20	-35	66	-36	166	148	1423	110983	1423	57231509
424	331	3798	-18	-35	44	-36	166	148	1424	111085	1424	57231509
443	331	3793	-14	-36	26	-35	167	145	1425	111139	1425	57231510
446	337	3794	-19	-34	28	-35	167	145	1426	111241	1426	57231513
444	351	3778	-18	-34	6	-28	160	156	1427	111295	1427	57231513
440	322	3782	-21	-33	33	-28	160	156	1428	111397	1428	57231517
435	319	3786	-20	-31	52	-29	167	149	1429	111451	1429	57231517
437	316	3787	-20	-33	-21	-29	167	149	1430	111553	1430	57231519
431	332	3796	-18	-33	-64	-28	160	146	1431	111607	1431	57231534
443	321	3812	-19	-35	-15	-28	160	146	1432	111709	1432	57231534
441	338	3802	-18	-32	-12	-37	167	151	1433	111763	1433	57231539
435	343	3787	-18	-33	22	-37	167	151	1434	111865	1434	57231539
445	326	3783	-18	-33	39	-32	158	148	1435	111920	1435	57231544
450	326	3808	-15	-36	41	-32	158	148	1436	112022	1436	57231558
439	330	3772	-19	-35	57	-33	161	149	1437	112076	1437	57231558
439	337	3797	-21	-35	13	-33	161	149	1438	112178	1438	57231564
450	316	3789	-17	-33	39	-26	160	146	1439	112232	1439	57231565
449	341	3787	-16	-32	37	-26	160	146	1440	112334	1440	57231566
437	328	3798	-19	-36	24	-29	163	145	1441	112389	1441	57231583
446	326	3786	-16	-35	25	-29	163	145	1442	112491	1442	57231583
446	337	3797	-17	-36	-7	-33	163	149	1443	112545	1443	57231588
446	327	3792	-17	-35	44	-33	163	149	1444	112647	1444	57231588
439	328	3761	-17	-32	3	-28	166	146	1445	112702	1445	57231591
456	339	3760	-19	-36	27	-28	166	146	1446	112804	1446	57231608
435	343	3780	-19	-37	60	-28	164	148	1447	112858	1447	57231608
445	349	3768	-22	-31	29	-28	164	148	1448	112960	1448	57231611
438	323	3790	-19	-32	13	-28	162	152	1449	113014	1449	57231612
446	340	3784	-17	-30	16	-28	162	152	1450	113116	1450	57231633
438	342	3804	-19	-31	89	-31	159	149	1451	113170	1451	57231635
442	336	3776	-19	-33	-14	-31	159	149	1452	113272	1452	57231635
454	321	3798	-20	-34	50	-31	165	151	1453	113326	1453	57231636
464	341	3793	-20	-31	20	-31	165	151	1454	113428	1454	57231637
446	316	3807	-19	-31	-7	-39	163	147	1455	113482	1455	57231657
445	328	3792	-17	-35	66	-39	163	147	1456	113584	1456	57231658
432	333	3811	-18	-36	52	-35	165	149	1457	113638	1457	57231660
444	338	3800	-21	-35	20	-35	165	149	1458	113740	1458	57231661
437	334	3767	-19	-33	38	-32	160	150	1459	113794	1459	57231661
443	332	3798	-20	-33	21	-32	160	150	1460	113896	1460	57231682
436	340	3813	-19	-36	29	-35	159	149	1461	113950	1461	57231683
446	327	3784	-22	-34	2	-35	159	149	1462	114052	1462	57231685
440	334	3796	-20	-32	-36	-29	163	157	1463	114106	1463	57231686
423	331	3792	-19	-34	75	-29	163	157	1464	114208	1464	57231687
444	342	3799	-16	-33	40	-34	164	146	1465	114262	1465	57231707
455	320	3794	-16	-34	58	-34	164	146	1466	114364	1466	57231708
440	337	3763	-20	-34	33	-34	158	160	1467	114418	1467	57231710
439	317	3820	-18	-34	8	-34	158	160	1468	114520	1468	57231711
440	332	3783	-16	-35	73	-35	165	149	1469	114574	1469	57231711
446	329	3810	-15	-35	2	-35	165	149	1470	114676	1470	57231732
436	325	3780	-20	-37	81	-33	163	147	1471	114730	1471	57231732
451	347	3777	-21	-33	27	-33	163	147	1472	114832	1472	57231735
451	339	3776	-22	-36	-18	-27	159	151	1473	114886	1473	57231736
438	341	3793	-18	-36	30	-27	159	151	1474	114988	1474	57231736
437	324	3778	-20	-35	31	-31	165	145	1475	115042	1475	57231760
441	346	3786	-20	-33	7	-31	165	145	1476	115144	1476	57231760
434	349	3804	-19	-32	-5	-30	166	156	1477	115198	1477	57231767
450	322	3805	-21	-34	42	-30	166	156	1478	115300	1478	57231768
454	317	3796	-16	-33	32	-32	166	148	1479	115354	1479	57231768
448	335	3829	-16	-32	59	-32	166	148	1480	115456	1480	57231769
443	337	3787	-18	-35	36	-30	158	148	1481	115510	1481	57231769
437	317	3796	-19	-34	78	-30	158	148	1482	115612	1482	57231785
441	339	3811	-19	-33	-18	-28	160	144	1483	115666	1483	57231785
433	321	3767	-22	-35	27	-28	160	144	1484	115768	1484	57231786
446	314	3809	-20	-36	48	-28	160	148	1485	115822	1485	57231809
443	335	3766	-20	-36	45	-28	160	148	1486	115924	1486	57231809
432	325	3786	-15	-34	9	-35	163	151	1487	115978	1487	57231812
447	337	3795	-18	-34	-10	-35	163	151	1488	116080	1488	57231814
436	334	3795	-19	-33	-21	-33	167	147	1489	116134	1489	57231815
431	331	3776	-15	-35	-16	-33	167	147	1490	116236	1490	57231834
435	342	3770	-19	-31	28	-33	167	153	1491	116290	1491	57231835
437	350	3763	-19	-31	20	-33	167	153	1492	116392	1492	57231838
439	326	3794	-17	-35	45	-31	163	151	1493	116446	1493	57231839
431	338	3799	-16	-33	7	-31	163	151	1494	116548	1494	57231840
442	329	3820	-15	-34	2	-27	163	151	1495	116602	1495	57231843
434	312	3791	-15	-33	38	-27	163	151	1496	116704	1496	57231843
430	336	3780	-18	-33	-34	-35	165	149	1497	116758	1497	57231857
438	331	3753	-15	-32	-2	-35	165	149	1498	116860	1498	57231858
449	332	3764	-20	-33	-23	-30	164	152	1499	116914	1499	57231860
439	318	3788	-22	-34	-16	-30	164	152	1500	117016	1500	57231893
445	336	3802	-17	-36	29	-26	166	150	1501	117070	1501	57231893
453	332	3790	-19	-32	43	-26	166	150	1502	117172	1502	57231896
435	324	3792	-19	-33	-30	-32	164	146	1503	117226	1503	57231896
432	333	3790	-18	-35	6	-32	164	146	1504	117328	1504	57231899
445	324	3782	-21	-36	-46	-35	163	145	1505	117382	1505	57231900
433	336	3801	-22	-38	46	-35	163	145	1506	117484	1506	57231900
445	347	3799	-19	-34	8	-33	165	145	1507	117538	1507	57231904
430	340	3788	-18	-34	17	-33	165	145	1508	117640	1508	57231904
447	340	3806	-18	-34	2	-29	163	149	1509	117694	1509	57231906
440	343	3795	-14	-33	23	-29	163	149	1510	117796	1510	57231940
429	323	3797	-16	-34	29	-31	165	149	1511	117850	1511	57231940
457	336	3802	-22	-34	16	-31	165	149	1512	117952	1512	57231944
443	343	3785	-20	-34	-11	-31	163	149	1513	118006	1513	57231952
453	327	3793	-20	-35	43	-31	163	149	1514	118108	1514	57231953
437	345	3800	-19	-34	29	-33	163	149	1515	118162	1515	57231953
453	333	3797	-16	-36	26	-33	163	149	1516	118264	1516	57231953
423	330	3790	-19	-33	29	-30	160	144	1517	118318	1517	57231955
435	324	3797	-17	-37	39	-30	160	144	1518	118420	1518	57231955
443	322	3792	-19	-37	52	-36	158	150	1519	118474	1519	57231990
438	345	3780	-21	-36	-60	-36	158	150	1520	118576	1520	57231990
463	351	3788	-20	-33	-5	-28	164	152	1521	118630	1521	57231992
429	325	3791	-15	-34	28	-28	164	152	1522	118732	1522	57231994
449	325	3806	-16	-30	-34	-31	163	149	1523	118786	1523	57231994
455	345	3792	-15	-34	24	-31	163	149	1524	118888	1524	57231997
433	324	3777	-16	-36	6	-32	160	146	1525	118942	1525	57231998
427	338	3777	-18	-32	54	-32	160	146	1526	119044	1526	57232000
434	332	3788	-17	-33	29	-32	162	142	1527	119098	1527	57232015
463	345	3774	-17	-33	23	-32	162	142	1528	119200	1528	57232015
438	333	3792	-18	-35	48	-29	165	151	1529	119254	1529	57232019
451	333	3804	-17	-34	33	-29	165	151	1530	119356	1530	57232019
443	341	3798	-19	-32	32	-34	164	148	1531	119410	1531	57232021
445	336	3785	-16	-35	1	-34	164	148	1532	119512	1532	57232025
426	325	3785	-20	-33	8	-37	163	145	1533	119566	1533	57232027
451	332	3768	-16	-34	38	-37	163	145	1534	119668	1534	57232040
432	323	3790	-14	-32	46	-26	160	154	1535	119722	1535	57232041
436	316	3797	-18	-35	4	-26	160	154	1536	119824	1536	57232043
450	336	3808	-19	-36	34	-36	164	144	1537	119878	1537	57232065
460	326	3801	-18	-34	44	-36	164	144	1538	119980	1538	57232065
439	341	3785	-18	-33	-5	-36	160	146	1539	120034	1539	57232094
437	341	3796	-19	-34	20	-36	160	146	1540	120136	1540	57232094
449	333	3806	-21	-31	84	-31	163	155	1541	120190	1541	57232097
432	329	3795	-18	-35	12	-31	163	155	1542	120292	1542	57232098
453	343	3825	-23	-37	19	-34	170	148	1543	120346	1543	57232098
438	325	3796	-22	-32	66	-34	170	148	1544	120448	1544	57232115
435	344	3765	-18	-35	-36	-31	167	147	1545	120502	1545	57232115
441	345	3801	-19	-33	32	-31	167	147	1546	120604	1546	57232117
443	330	3793	-20	-32	27	-31	165	149	1547	120658	1547	57232117
445	337	3792	-16	-34	-23	-31	165	149	1548	120760	1548	57232118
429	331	3790	-19	-35	69	-28	164	144	1549	120814	1549	57232121
428	338	3800	-18	-31	34	-28	164	144	1550	120916	1550	57232122
460	328	3804	-18	-34	28	-32	168	152	1551	120970	1551	57232139
448	333	3783	-15	-32	32	-32	168	152	1552	121072	1552	57232139
440	331	3779	-21	-33	22	-33	169	149	1553	121126	1553	57232141
433	336	3801	-19	-33	35	-33	169	149	1554	121228	1554	57232142
449	343	3804	-18	-35	3	-29	157	153	1555	121282	1555	57232143
439	321	3798	-20	-34	56	-29	157	153	1556	121384	1556	57232146
458	328	3794	-19	-34	-33	-32	162	148	1557	121438	1557	57232146
418	326	3794	-18	-33	18	-32	162	148	1558	121540	1558	57232149
453	328	3792	-18	-33	32	-28	162	152	1559	121594	1559	57232165
427	329	3790	-19	-34	28	-28	162	152	1560	121696	1560	57232166
437	328	3802	-21	-34	10	-30	166	148	1561	121750	1561	57232169
452	330	3783	-19	-35	18	-30	166	148	1562	121852	1562	57232169
439	313	3775	-19	-33	-2	-35	163	151	1563	121906	1563	57232172
429	347	3803	-19	-35	66	-35	163	151	1564	122008	1564	57232189
439	324	3788	-18	-34	14	-30	160	152	1565	122062	1565	57232189
466	329	3774	-19	-36	47	-30	160	152	1566	122164	1566	57232193
452	340	3793	-19	-33	40	-36	158	150	1567	122218	1567	57232193
452	337	3785	-19	-32	-26	-36	158	150	1568	122320	1568	57232199
436	335	3790	-16	-35	-20	-29	157	149	1569	122374	1569	57232216
433	333	3806	-19	-35	30	-29	157	149	1570	122476	1570	57232218
442	326	3769	-19	-33	65	-34	162	150	1571	122530	1571	57232218
440	326	3773	-20	-31	33	-34	162	150	1572	122632	1572	57232219
452	332	3807	-23	-33	50	-28	170	152	1573	122686	1573	57232220
444	339	3768	-20	-34	63	-28	170	152	1574	122788	1574	57232239
454	328	3786	-20	-33	-24	-30	162	150	1575	122842	1575	57232239
447	334	3768	-19	-35	10	-30	162	150	1576	122944	1576	57232242
437	334	3770	-19	-36	-22	-30	162	148	1577	122998	1577	57232245
450	323	3784	-18	-35	0	-30	162	148	1578	123100	1578	57232264
446	338	3781	-17	-33	58	-36	156	148	1579	123154	1579	57232268
453	343	3769	-16	-33	13	-36	156	148	1580	123256	1580	57232269
443	330	3784	-17	-32	44	-32	164	150	1581	123310	1581	57232269
437	328	3780	-22	-37	24	-32	164	150	1582	123412	1582	57232269
419	327	3778	-21	-35	-6	-37	159	147	1583	123466	1583	57232288
431	326	3782	-18	-36	59	-37	159	147	1584	123568	1584	57232288
428	332	3768	-15	-31	6	-32	164	148	1585	123622	1585	57232290
460	311	3780	-16	-32	28	-32	164	148	1586	123724	1586	57232291
445	317	3790	-16	-32	3	-34	164	150	1587	123778	1587	57232292
430	318	3774	-16	-34	-17	-34	164	150	1588	123880	1588	57232312
444	326	3792	-16	-34	56	-29	167	153	1589	123934	1589	57232313
461	341	3776	-16	-34	3	-29	167	153	1590	124036	1590	57232315
450	333	3787	-18	-35	45	-29	161	149	1591	124090	1591	57232316
457	328	3796	-17	-33	-4	-29	161	149	1592	124192	1592	57232316
440	324	3803	-16	-33	-18	-37	163	151	1593	124246	1593	57232337
438	316	3788	-16	-31	47	-37	163	151	1594	124348	1594	57232338
429	308	3810	-14	-35	-36	-33	161	151	1595	124402	1595	57232340
442	326	3798	-15	-32	45	-33	161	151	1596	124504	1596	57232341
443	330	3798	-17	-33	27	-29	163	147	1597	124558	1597	57232341
432	337	3774	-20	-32	30	-29	163	147	1598	124660	1598	57232364
440	337	3778	-19	-36	36	-31	163	149	1599	124714	1599	57232364
445	333	3815	-20	-37	-32	-31	163	149	1600	124816	1600	57232365
429	336	3788	-23	-35	40	-34	162	154	1601	124870	1601	57232366
460	323	3807	-18	-32	24	-34	162	154	1602	124972	1602	57232367
416	333	3794	-17	-36	-2	-31	163	145	1603	125026	1603	57232388
437	319	3782	-19	-34	58	-31	163	145	1604	125128	1604	57232388
444	350	3791	-19	-33	43	-30	160	150	1605	125182	1605	57232390
438	338	3796	-18	-38	19	-30	160	150	1606	125284	1606	57232392
447	331	3782	-16	-36	-18	-31	165	145	1607	125338	1607	57232392
445	349	3794	-20	-33	1	-31	165	145	1608	125440	1608	57232412
464	316	3808	-17	-31	34	-31	161	149	1609	125494	1609	57232413
439	328	3782	-17	-32	27	-31	161	149	1610	125596	1610	57232416
437	305	3790	-16	-35	37	-33	165	149	1611	125650	1611	57232416
430	332	3788	-19	-33	41	-33	165	149	1612	125752	1612	57232417
454	334	3777	-19	-34	27	-31	163	145	1613	125806	1613	57232438
432	321	3800	-19	-34	71	-31	163	145	1614	125908	1614	57232438
434	328	3788	-19	-31	20	-30	162	150	1615	125962	1615	57232441
433	330	3769	-19	-34	30	-30	162	150	1616	126064	1616	57232442
426	338	3815	-17	-33	-34	-31	167	145	1617	126118	1617	57232448
434	329	3781	-21	-34	23	-31	167	145	1618	126220	1618	57232463
445	327	3787	-17	-36	50	-32	162	150	1619	126274	1619	57232463
437	310	3778	-17	-36	4	-32	162	150	1620	126376	1620	57232466
448	328	3763	-19	-33	44	-30	162	152	1621	126430	1621	57232466
455	316	3767	-19	-34	21	-30	162	152	1622	126532	1622	57232469
438	328	3768	-17	-31	9	-32	164	146	1623	126586	1623	57232474
444	343	3777	-20	-34	52	-32	164	146	1624	126688	1624	57232474
438	326	3773	-20	-35	-40	-36	164	152	1625	126742	1625	57232487
440	317	3781	-20	-36	-2	-36	164	152	1626	126844	1626	57232496
462	332	3770	-21	-34	-22	-33	161	155	1627	126898	1627	57232497
432	319	3795	-20	-34	43	-33	161	155	1628	127000	1628	57232523
461	330	3782	-20	-30	55	-31	165	147	1629	127054	1629	57232523
439	338	3803	-19	-32	0	-31	165	147	1630	127156	1630	57232526
434	336	3778	-20	-33	29	-33	163	147	1631	127210	1631	57232526
442	326	3788	-20	-38	59	-33	163	147	1632	127312	1632	57232529
448	324	3781	-17	-34	-35	-30	164	146	1633	127366	1633	57232530
433	328	3805	-21	-36	11	-30	164	146	1634	127468	1634	57232530
431	327	3796	-17	-33	22	-38	164	144	1635	127522	1635	57232534
451	342	3791	-16	-31	25	-38	164	144	1636	127624	1636	57232534
445	341	3781	-18	-35	52	-29	161	145	1637	127678	1637	57232551
442	331	3775	-21	-34	11	-29	161	145	1638	127780	1638	57232552
442	334	3772	-17	-35	35	-30	166	152	1639	127834	1639	57232552
448	324	3799	-19	-33	29	-30	166	152	1640	127936	1640	57232556
440	328	3783	-22	-34	55	-27	165	145	1641	127990	1641	57232557
434	335	3775	-20	-32	54	-27	165	145	1642	128092	1642	57232576
433	316	3791	-18	-30	60	-26	158	156	1643	128146	1643	57232578
447	336	3806	-16	-34	55	-26	158	156	1644	128248	1644	57232579
454	329	3793	-16	-34	-43	-34	162	150	1645	128302	1645	57232581
467	347	3772	-20	-33	59	-34	162	150	1646	128404	1646	57232581
444	335	3793	-17	-33	-5	-31	167	149	1647	128458	1647	57232601
431	346	3798	-24	-36	22	-31	167	149	1648	128560	1648	57232601
452	317	3770	-20	-32	34	-29	157	151	1649	128614	1649	57232603
445	334	3787	-20	-34	16	-29	157	151	1650	128716	1650	57232606
457	332	3793	-18	-35	42	-33	167	147	1651	128770	1651	57232606
467	352	3780	-16	-35	35	-33	167	147	1652	128872	1652	57232628
437	330	3775	-20	-36	7	-24	164	152	1653	128926	1653	57232636
450	334	3797	-19	-33	10	-24	164	152	1654	129028	1654	57232637
441	347	3789	-13	-32	29	-37	163	151	1655	129082	1655	57232637
442	327	3780	-19	-33	28	-37	163	151	1656	129184	1656	57232637
428	329	3785	-15	-36	3	-34	164	152	1657	129238	1657	57232653
449	338	3804	-17	-33	24	-34	164	152	1658	129340	1658	57232653
452	337	3790	-14	-32	78	-27	161	149	1659	129394	1659	57232655
436	316	3781	-18	-36	23	-27	161	149	1660	129496	1660	57232656
434	329	3802	-17	-35	45	-37	157	149	1661	129550	1661	57232657
443	326	3801	-19	-37	-4	-37	157	149	1662	129652	1662	57232676
450	320	3783	-15	-34	14	-35	163	145	1663	129706	1663	57232677
428	329	3807	-17	-33	36	-35	163	145	1664	129808	1664	57232679
453	337	3780	-16	-33	47	-34	160	152	1665	129862	1665	57232680
429	332	3763	-18	-34	44	-34	160	152	1666	129964	1666	57232681
438	334	3795	-17	-35	5	-35	159	149	1667	130018	1667	57232701
443	319	3798	-19	-32	-14	-35	159	149	1668	130120	1668	57232702
441	345	3794	-19	-33	50	-34	158	156	1669	130174	1669	57232705
452	337	3779	-18	-33	6	-34	158	156	1670	130276	1670	57232706
460	338	3793	-18	-33	49	-36	166	146	1671	130330	1671	57232706
451	322	3796	-22	-36	10	-36	166	146	1672	130432	1672	57232734
418	334	3801	-19	-35	7	-32	162	146	1673	130486	1673	57232734
446	322	3798	-21	-36	66	-32	162	146	1674	130588	1674	57232738
436	340	3802	-20	-33	24	-28	164	154	1675	130642	1675	57232738
445	318	3775	-21	-34	37	-28	164	154	1676	130744	1676	57232740
420	328	3811	-19	-33	-3	-30	158	144	1677	130798	1677	57232754
426	331	3787	-21	-33	2	-30	158	144	1678	130900	1678	57232755
448	329	3784	-20	-33	60	-32	166	152	1679	130954	1679	57232758
444	337	3794	-20	-34	12	-32	166	152	1680	131056	1680	57232758
451	342	3781	-22	-34	59	-30	168	148	1681	131110	1681	57232761
434	341	3809	-21	-35	19	-30	168	148	1682	131212	1682	57232763
442	317	3794	-19	-35	-35	-35	161	147	1683	131266	1683	57232767
452	330	3754	-19	-34	1	-35	161	147	1684	131368	1684	57232778
449	318	3779	-19	-33	-4	-26	158	154	1685	131422	1685	57232778
423	336	3801	-19	-35	75	-26	158	154	1686	131524	1686	57232780
441	331	3807	-17	-35	26	-23	165	151	1687	131578	1687	57232814
447	321	3799	-15	-36	6	-23	165	151	1688	131680	1688	57232814
438	339	3772	-16	-36	53	-29	161	149	1689	131734	1689	57232818
448	324	3782	-18	-36	-13	-29	161	149	1690	131836	1690	57232818
440	324	3794	-19	-34	-18	-27	165	149	1691	131890	1691	57232820
442	325	3786	-19	-35	1	-27	165	149	1692	131992	1692	57232821
451	339	3791	-22	-35	-9	-31	159	147	1693	132046	1693	57232822
421	337	3791	-19	-32	35	-31	159	147	1694	132148	1694	57232825
444	329	3804	-18	-33	9	-30	162	148	1695	132202	1695	57232826
440	326	3825	-18	-33	11	-30	162	148	1696	132304	1696	57232828
438	333	3813	-19	-34	42	-33	159	151	1697	132358	1697	57232839
410	314	3792	-18	-34	-9	-33	159	151	1698	132460	1698	57232839
458	323	3773	-21	-33	33	-30	168	146	1699	132514	1699	57232849
443	336	3763	-19	-34	-18	-30	168	146	1700	132616	1700	57232849
453	316	3819	-17	-35	-21	-32	164	152	1701	132670	1701	57232863
458	333	3804	-18	-34	1	-32	164	152	1702	132772	1702	57232864
451	337	3791	-18	-32	44	-32	160	148	1703	132826	1703	57232865
440	340	3792	-17	-35	57	-32	160	148	1704	132928	1704	57232872
424	330	3803	-18	-35	-11	-31	165	151	1705	132982	1705	57232873
432	334	3784	-16	-36	28	-31	165	151	1706	133084	1706	57232889
446	328	3760	-15	-34	8	-32	158	152	1707	133138	1707	57232889
456	339	3804	-15	-33	7	-32	158	152	1708	133240	1708	57232891
426	330	3776	-16	-33	94	-32	172	148	1709	133294	1709	57232898
446	335	3808	-17	-36	-21	-32	172	148	1710	133396	1710	57232898
447	345	3784	-17	-34	52	-27	161	147	1711	133450	1711	57232915
441	338	3779	-20	-32	50	-27	161	147	1712	133552	1712	57232915
445	347	3792	-19	-33	17	-29	165	153	1713	133606	1713	57232916
429	347	3797	-20	-35	36	-29	165	153	1714	133708	1714	57232923
447	325	3783	-17	-35	39	-34	164	148	1715	133762	1715	57232923
451	330	3808	-15	-34	8	-34	164	148	1716	133864	1716	57232939
439	324	3773	-18	-36	7	-24	158	150	1717	133918	1717	57232939
444	341	3784	-21	-33	1	-24	158	150	1718	134020	1718	57232942
461	327	3792	-21	-34	-10	-28	166	148	1719	134074	1719	57232946
429	335	3780	-18	-32	30	-28	166	148	1720	134176	1720	57232947
440	330	3786	-20	-34	40	-34	164	150	1721	134230	1721	57232967
461	313	3783	-18	-35	62	-34	164	150	1722	134332	1722	57232968
466	324	3790	-20	-33	-12	-28	158	152	1723	134386	1723	57232968
436	318	3784	-19	-31	19	-28	158	152	1724	134488	1724	57232972
429	325	3803	-16	-34	-21	-35	165	149	1725	134542	1725	57232979
428	321	3810	-16	-33	33	-35	165	149	1726	134644	1726	57232989
456	325	3792	-18	-34	13	-32	160	150	1727	134698	1727	57232989
431	328	3772	-18	-37	17	-32	160	150	1728	134800	1728	57232991
434	332	3770	-20	-35	41	-34	166	144	1729	134854	1729	57232993
463	337	3788	-21	-32	1	-34	166	144	1730	134956	1730	57232993
458	331	3790	-21	-37	53	-31	163	143	1731	135010	1731	57233015
452	329	3794	-16	-36	17	-31	163	143	1732	135112	1732	57233015
463	318	3786	-21	-35	22	-32	162	154	1733	135166	1733	57233017
439	340	3810	-17	-34	86	-32	162	154	1734	135268	1734	57233018
449	331	3790	-18	-37	43	-29	163	147	1735	135322	1735	57233018
440	326	3779	-22	-35	-37	-29	163	147	1736	135424	1736	57233039
423	329	3801	-22	-33	-25	-34	162	154	1737	135478	1737	57233039
432	331	3795	-17	-31	17	-34	162	154	1738	135580	1738	57233042
438	330	3785	-19	-34	24	-28	162	150	1739	135634	1739	57233045
442	306	3791	-19	-35	32	-28	162	150	1740	135736	1740	57233046
434	339	3793	-19	-33	15	-33	159	147	1741	135790	1741	57233064
446	328	3781	-19	-35	-17	-33	159	147	1742	135892	1742	57233064
423	327	3779	-15	-37	11	-32	162	150	1743	135946	1743	57233068
439	334	3784	-17	-34	22	-32	162	150	1744	136048	1744	57233068
439	333	3779	-16	-33	1	-31	165	147	1745	136102	1745	57233070
417	337	3796	-21	-32	12	-31	165	147	1746	136204	1746	57233089
426	320	3809	-21	-37	52	-31	157	151	1747	136258	1747	57233089
450	321	3808	-19	-36	24	-31	157	151	1748	136360	1748	57233093
443	338	3778	-19	-39	-2	-36	162	156	1749	136414	1749	57233093
447	320	3787	-19	-35	2	-36	162	156	1750	136516	1750	57233095
429	335	3785	-20	-36	8	-33	167	145	1751	136570	1751	57233114
459	330	3781	-24	-37	14	-33	167	145	1752	136672	1752	57233115
464	337	3808	-20	-37	-9	-36	156	150	1753	136726	1753	57233117
444	340	3797	-23	-33	76	-36	156	150	1754	136828	1754	57233118
462	343	3765	-23	-35	4	-34	162	146	1755	136882	1755	57233120
454	340	3778	-21	-34	23	-34	162	146	1756	136984	1756	57233139
463	328	3791	-21	-31	-8	-28	160	152	1757	137038	1757	57233139
450	332	3808	-16	-36	21	-28	160	152	1758	137140	1758	57233142
441	328	3794	-17	-32	-11	-35	161	153	1759	137194	1759	57233143
440	325	3791	-18	-34	-20	-35	161	153	1760	137296	1760	57233145
430	331	3801	-19	-35	19	-29	159	151	1761	137350	1761	57233150
454	331	3794	-19	-35	28	-29	159	151	1762	137452	1762	57233150
433	347	3783	-21	-33	30	-29	163	153	1763	137506	1763	57233166
451	329	3791	-17	-36	-10	-29	163	153	1764	137608	1764	57233166
443	320	3785	-16	-34	5	-31	167	153	1765	137662	1765	57233175
441	318	3805	-19	-33	81	-31	167	153	1766	137764	1766	57233176
451	328	3788	-15	-33	26	-29	163	157	1767	137818	1767	57233176
432	309	3777	-17	-34	56	-29	163	157	1768	137920	1768	57233191
452	320	3785	-21	-35	44	-34	156	154	1769	137974	1769	57233195
439	340	3813	-15	-38	-24	-34	156	154	1770	138076	1770	57233199
444	333	3786	-19	-36	53	-29	165	147	1771	138130	1771	57233201
442	348	3781	-14	-35	47	-29	165	147	1772	138232	1772	57233214
443	337	3794	-18	-34	34	-34	160	156	1773	138286	1773	57233215
457	339	3776	-21	-35	55	-34	160	156	1774	138388	1774	57233215
436	335	3792	-22	-32	11	-34	162	146	1775	138442	1775	57233225
427	326	3763	-20	-33	-5	-34	162	146	1776	138544	1776	57233225
434	337	3785	-19	-37	10	-32	158	150	1777	138598	1777	57233226
457	320	3813	-18	-36	-24	-32	158	150	1778	138700	1778	57233239
432	325	3801	-19	-33	42	-31	163	149	1779	138754	1779	57233240
438	327	3787	-21	-34	45	-31	163	149	1780	138856	1780	57233248
437	333	3806	-18	-36	10	-26	160	150	1781	138910	1781	57233248
449	334	3797	-20	-34	-29	-26	160	150	1782	139012	1782	57233264
435	343	3795	-20	-34	-8	-32	162	158	1783	139066	1783	57233265
439	334	3773	-20	-33	60	-32	162	158	1784	139168	1784	57233266
445	346	3780	-18	-34	-25	-36	166	148	1785	139222	1785	57233273
458	346	3799	-18	-35	86	-36	166	148	1786	139324	1786	57233273
452	342	3785	-20	-33	47	-29	163	141	1787	139378	1787	57233275
443	335	3747	-19	-33	-31	-29	163	141	1788	139480	1788	57233290
432	315	3788	-17	-33	29	-33	165	151	1789	139534	1789	57233290
459	331	3819	-20	-34	-26	-33	165	151	1790	139636	1790	57233298
439	326	3801	-20	-34	17	-33	163	151	1791	139691	1791	57233306
450	336	3792	-21	-35	29	-33	163	151	1792	139793	1792	57233307
437	329	3789	-18	-36	13	-34	158	150	1793	139847	1793	57233315
436	328	3791	-19	-36	19	-34	158	150	1794	139949	1794	57233315
440	340	3785	-18	-34	15	-33	161	151	1795	140003	1795	57233322
437	348	3798	-17	-32	15	-33	161	151	1796	140105	1796	57233322
433	342	3785	-18	-33	29	-30	158	152	1797	140159	1797	57233340
443	318	3780	-16	-33	10	-30	158	152	1798	140261	1798	57233340
447	317	3791	-20	-38	-19	-29	167	149	1799	140315	1799	57233340
446	320	3814	-22	-34	20	-29	167	149	1800	140417	1800	57233344
432	321	3776	-19	-36	22	-35	157	149	1801	140472	1801	57233344
452	321	3772	-19	-34	94	-35	157	149	1802	140574	1802	57233373
454	341	3785	-18	-31	23	-32	160	160	1803	140628	1803	57233373
441	333	3796	-18	-33	41	-32	160	160	1804	140730	1804	57233375
441	333	3795	-19	-32	22	-31	165	147	1805	140785	1805	57233390
442	324	3781	-15	-35	47	-31	165	147	1806	140887	1806	57233390
446	323	3809	-16	-35	13	-34	166	146	1807	140941	1807	57233394
425	313	3780	-18	-34	40	-34	166	146	1808	141043	1808	57233394
437	335	3802	-21	-35	91	-29	161	149	1809	141097	1809	57233396
461	334	3788	-16	-35	-9	-29	161	149	1810	141199	1810	57233398
448	337	3796	-15	-32	32	-31	167	153	1811	141253	1811	57233399
433	339	3766	-17	-35	40	-31	167	153	1812	141355	1812	57233415
455	334	3768	-21	-34	-4	-35	155	153	1813	141410	1813	57233416
445	311	3784	-19	-34	41	-35	155	153	1814	141512	1814	57233418
449	333	3794	-20	-36	30	-34	162	154	1815	141566	1815	57233419
462	328	3799	-19	-35	56	-34	162	154	1816	141668	1816	57233419
450	335	3803	-20	-32	26	-35	163	145	1817	141722	1817	57233440
438	334	3786	-18	-31	17	-35	163	145	1818	141824	1818	57233448
449	327	3805	-17	-33	95	-31	159	153	1819	141878	1819	57233449
430	329	3780	-17	-35	38	-31	159	153	1820	141980	1820	57233449
438	327	3775	-17	-37	37	-33	163	147	1821	142034	1821	57233449
441	315	3811	-21	-35	-13	-33	163	147	1822	142136	1822	57233464
437	320	3808	-18	-35	22	-35	165	149	1823	142190	1823	57233465
442	332	3775	-19	-32	34	-35	165	149	1824	142292	1824	57233468
445	348	3785	-17	-33	38	-26	162	158	1825	142346	1825	57233468
432	342	3802	-17	-34	24	-26	162	158	1826	142448	1826	57233468
429	329	3787	-21	-34	14	-32	164	150	1827	142502	1827	57233489
458	330	3796	-21	-35	8	-32	164	150	1828	142604	1828	57233489
433	340	3793	-18	-36	8	-31	165	151	1829	142658	1829	57233492
435	332	3790	-19	-34	11	-31	165	151	1830	142760	1830	57233493
433	329	3785	-23	-35	14	-29	165	145	1831	142814	1831	57233495
458	321	3802	-19	-33	-30	-29	165	145	1832	142916	1832	57233514
446	328	3779	-18	-31	43	-32	160	156	1833	142970	1833	57233515
432	335	3797	-19	-33	54	-32	160	156	1834	143072	1834	57233517
448	322	3787	-18	-34	29	-25	161	141	1835	143126	1835	57233518
437	334	3810	-19	-34	70	-25	161	141	1836	143228	1836	57233520
436	329	3786	-17	-33	64	-32	160	146	1837	143283	1837	57233539
424	336	3800	-16	-34	-9	-32	160	146	1838	143385	1838	57233539
463	334	3798	-20	-33	37	-32	166	152	1839	143439	1839	57233542
426	334	3767	-17	-33	-16	-32	166	152	1840	143541	1840	57233543
453	343	3784	-18	-31	17	-32	164	154	1841	143595	1841	57233545
439	338	3757	-20	-33	35	-32	164	154	1842	143697	1842	57233565
430	332	3807	-18	-35	51	-33	161	151	1843	143751	1843	57233566
442	331	3811	-18	-37	19	-33	161	151	1844	143853	1844	57233568
439	330	3797	-21	-36	61	-33	163	151	1845	143907	1845	57233568
444	337	3792	-17	-34	92	-33	163	151	1846	144009	1846	57233570
444	326	3804	-17	-35	1	-28	162	152	1847	144063	1847	57233589
457	321	3782	-20	-34	12	-28	162	152	1848	144165	1848	57233589
434	330	3779	-20	-34	-2	-32	162	152	1849	144219	1849	57233593
442	337	3776	-21	-34	-7	-32	162	152	1850	144321	1850	57233593
435	346	3793	-13	-31	39	-33	165	143	1851	144375	1851	57233595
430	337	3779	-17	-34	-15	-33	165	143	1852	144477	1852	57233598
429	327	3780	-19	-33	-26	-28	168	148	1853	144531	1853	57233598
434	339	3777	-17	-33	-1	-28	168	148	1854	144633	1854	57233615
444	325	3778	-20	-32	3	-33	159	153	1855	144687	1855	57233616
446	320	3785	-15	-31	-25	-33	159	153	1856	144789	1856	57233625
415	330	3773	-18	-31	29	-34	162	150	1857	144843	1857	57233627
434	339	3786	-15	-31	31	-34	162	150	1858	144945	1858	57233630
431	317	3797	-18	-36	3	-31	157	149	1859	144999	1859	57233640
436	324	3809	-21	-35	68	-31	157	149	1860	145101	1860	57233641
427	318	3802	-25	-36	41	-34	166	150	1861	145155	1861	57233648
424	333	3785	-19	-33	25	-34	166	150	1862	145257	1862	57233649
455	327	3781	-18	-31	43	-34	166	152	1863	145311	1863	57233650
444	326	3761	-22	-30	8	-34	166	152	1864	145413	1864	57233664
442	344	3781	-18	-35	12	-33	159	153	1865	145467	1865	57233664
438	326	3798	-18	-33	54	-33	159	153	1866	145569	1866	57233671
421	354	3781	-18	-33	-8	-32	160	146	1867	145623	1867	57233672
453	351	3777	-22	-33	34	-32	160	146	1868	145725	1868	57233675
432	317	3771	-17	-34	37	-32	158	148	1869	145779	1869	57233689
436	324	3803	-20	-32	-11	-32	158	148	1870	145881	1870	57233690
443	337	3809	-21	-35	53	-27	163	143	1871	145935	1871	57233696
443	328	3791	-21	-34	58	-27	163	143	1872	146037	1872	57233697
453	333	3778	-18	-34	11	-37	167	151	1873	146091	1873	57233699
440	335	3787	-16	-36	1	-37	167	151	1874	146193	1874	57233715
453	324	3798	-19	-33	-2	-33	167	149	1875	146247	1875	57233715
449	324	3789	-19	-31	-12	-33	167	149	1876	146349	1876	57233719
457	338	3781	-16	-35	45	-35	163	147	1877	146403	1877	57233719
454	333	3795	-18	-34	-14	-35	163	147	1878	146505	1878	57233723
440	329	3773	-12	-35	34	-33	161	147	1879	146559	1879	57233741
419	342	3783	-19	-36	46	-33	161	147	1880	146661	1880	57233742
433	335	3787	-17	-36	51	-30	164	156	1881	146715	1881	57233745
444	326	3770	-15	-35	-3	-30	164	156	1882	146817	1882	57233745
437	326	3789	-18	-32	54	-28	160	148	1883	146871	1883	57233766
442	335	3785	-21	-33	12	-28	160	148	1884	146973	1884	57233767
439	339	3808	-17	-32	-11	-36	158	158	1885	147027	1885	57233767
434	345	3784	-19	-34	24	-36	158	158	1886	147129	1886	57233770
448	335	3816	-18	-34	3	-33	161	147	1887	147183	1887	57233771
441	336	3784	-17	-34	39	-33	161	147	1888	147285	1888	57233791
441	327	3789	-19	-35	23	-33	157	153	1889	147339	1889	57233791
452	338	3807	-20	-32	-10	-33	157	153	1890	147441	1890	57233794
450	324	3772	-19	-35	19	-33	165	143	1891	147495	1891	57233795
428	342	3806	-22	-34	20	-33	165	143	1892	147597	1892	57233795
440	339	3796	-19	-36	19	-34	164	146	1893	147651	1893	57233816
452	340	3798	-16	-35	45	-34	164	146	1894	147753	1894	57233817
444	332	3806	-16	-34	24	-36	160	146	1895	147807	1895	57233819
427	329	3806	-16	-34	52	-36	160	146	1896	147909	1896	57233820
434	325	3803	-16	-32	30	-32	162	148	1897	147963	1897	57233823
443	344	3786	-16	-33	-14	-32	162	148	1898	148065	1898	57233840
450	329	3795	-18	-36	50	-34	156	144	1899	148119	1899	57233840
439	322	3803	-19	-33	31	-34	156	144	1900	148221	1900	57233846
446	328	3795	-20	-33	70	-36	164	150	1901	148275	1901	57233848
465	338	3803	-16	-32	71	-36	164	150	1902	148377	1902	57233848
444	330	3782	-18	-34	8	-35	161	145	1903	148431	1903	57233865
444	322	3774	-18	-33	23	-35	161	145	1904	148533	1904	57233865
439	333	3797	-20	-35	56	-33	165	155	1905	148587	1905	57233867
459	349	3809	-17	-34	48	-33	165	155	1906	148689	1906	57233869
443	350	3769	-16	-35	58	-34	160	146	1907	148743	1907	57233869
441	341	3762	-18	-36	78	-34	160	146	1908	148845	1908	57233890
459	333	3806	-14	-31	47	-31	161	147	1909	148899	1909	57233891
439	339	3799	-18	-29	-22	-31	161	147	1910	149001	1910	57233893
437	324	3793	-19	-33	29	-29	165	157	1911	149055	1911	57233894
449	350	3782	-20	-34	-47	-29	165	157	1912	149157	1912	57233895
433	343	3792	-20	-31	1	-36	166	150	1913	149211	1913	57233915
429	319	3761	-20	-34	40	-36	166	150	1914	149313	1914	57233916
445	322	3801	-19	-34	-5	-31	163	147	1915	149367	1915	57233919
451	331	3753	-20	-34	38	-31	163	147	1916	149469	1916	57233919
445	346	3814	-21	-34	0	-32	162	146	1917	149523	1917	57233919
435	336	3796	-22	-35	57	-32	162	146	1918	149625	1918	57233940
443	339	3786	-18	-33	57	-29	163	149	1919	149679	1919	57233941
452	343	3773	-15	-32	26	-29	163	149	1920	149781	1920	57233944
432	327	3796	-17	-34	74	-33	161	151	1921	149835	1921	57233944
446	347	3781	-17	-35	26	-33	161	151	1922	149937	1922	57233946
439	336	3790	-17	-34	-14	-30	168	146	1923	149991	1923	57233966
414	333	3807	-14	-35	24	-30	168	146	1924	150093	1924	57233967
438	322	3795	-16	-33	18	-26	162	146	1925	150147	1925	57233969
451	346	3806	-17	-32	33	-26	162	146	1926	150249	1926	57233970
446	338	3785	-15	-32	14	-32	162	146	1927	150303	1927	57233972
427	329	3803	-20	-35	56	-32	162	146	1928	150405	1928	57233976
433	349	3794	-20	-34	48	-33	165	149	1929	150459	1929	57233980
438	329	3782	-18	-35	-36	-33	165	149	1930	150561	1930	57234014
445	334	3776	-19	-35	50	-33	155	151	1931	150615	1931	57234014
447	346	3781	-19	-31	-7	-33	155	151	1932	150717	1932	57234016
433	339	3781	-19	-32	50	-30	160	142	1933	150771	1933	57234018
430	327	3801	-19	-35	39	-30	160	142	1934	150873	1934	57234018
442	345	3793	-17	-36	-9	-34	168	146	1935	150927	1935	57234022
448	337	3789	-17	-35	-1	-34	168	146	1936	151029	1936	57234025
446	334	3775	-20	-34	29	-35	159	147	1937	151083	1937	57234028
437	330	3784	-16	-34	35	-35	159	147	1938	151185	1938	57234029
443	331	3805	-22	-35	48	-29	163	147	1939	151239	1939	57234030
433	320	3780	-18	-32	-43	-29	163	147	1940	151341	1940	57234040
440	335	3776	-17	-32	28	-33	165	153	1941	151395	1941	57234041
446	337	3789	-20	-33	-31	-33	165	153	1942	151497	1942	57234045
452	338	3785	-16	-35	44	-37	159	147	1943	151551	1943	57234047
448	337	3775	-17	-33	35	-37	159	147	1944	151653	1944	57234047
450	334	3784	-20	-35	25	-34	160	148	1945	151707	1945	57234064
438	325	3789	-23	-36	-5	-34	160	148	1946	151809	1946	57234064
434	332	3793	-23	-35	21	-28	166	148	1947	151863	1947	57234072
426	336	3825	-20	-34	51	-28	166	148	1948	151965	1948	57234072
439	332	3788	-17	-34	62	-33	167	145	1949	152019	1949	57234072
437	340	3770	-17	-35	-5	-33	167	145	1950	152121	1950	57234089
431	338	3799	-22	-36	43	-30	164	150	1951	152175	1951	57234092
447	324	3773	-21	-34	-21	-30	164	150	1952	152277	1952	57234095
442	320	3790	-23	-34	0	-32	164	146	1953	152331	1953	57234095
439	324	3805	-19	-34	19	-32	164	146	1954	152433	1954	57234097
435	334	3776	-17	-33	-6	-33	159	155	1955	152487	1955	57234114
438	320	3804	-22	-34	73	-33	159	155	1956	152589	1956	57234114
446	342	3786	-19	-36	28	-32	160	152	1957	152643	1957	57234119
456	335	3792	-19	-36	31	-32	160	152	1958	152745	1958	57234119
422	326	3784	-19	-32	18	-38	162	152	1959	152799	1959	57234122
444	327	3812	-20	-34	0	-38	162	152	1960	152901	1960	57234139
458	324	3820	-23	-36	47	-34	162	152	1961	152955	1961	57234139
445	329	3782	-20	-33	34	-34	162	152	1962	153057	1962	57234142
448	329	3799	-20	-36	22	-36	166	148	1963	153111	1963	57234143
398	327	3763	-20	-36	7	-36	166	148	1964	153213	1964	57234146
459	326	3774	-15	-35	43	-29	161	147	1965	153267	1965	57234164
446	327	3794	-16	-36	-7	-29	161	147	1966	153369	1966	57234164
447	337	3791	-21	-32	16	-33	163	147	1967	153423	1967	57234167
449	334	3778	-18	-36	16	-33	163	147	1968	153525	1968	57234168
427	348	3805	-18	-36	-40	-29	169	141	1969	153579	1969	57234170
444	330	3783	-18	-32	18	-29	169	141	1970	153681	1970	57234189
448	331	3778	-17	-38	18	-32	166	154	1971	153735	1971	57234190
443	349	3784	-17	-33	18	-32	166	154	1972	153837	1972	57234193
450	332	3777	-17	-35	-27	-34	164	148	1973	153891	1973	57234195
431	339	3789	-18	-38	36	-34	164	148	1974	153993	1974	57234214
458	336	3778	-17	-32	-8	-34	162	140	1975	154047	1975	57234214
445	322	3785	-18	-34	50	-34	162	140	1976	154149	1976	57234214
439	333	3784	-18	-31	24	-32	160	150	1977	154203	1977	57234218
442	333	3801	-21	-36	54	-32	160	150	1978	154305	1978	57234218
444	325	3800	-19	-34	40	-30	164	142	1979	154359	1979	57234240
456	340	3797	-16	-32	31	-30	164	142	1980	154461	1980	57234241
462	327	3784	-13	-31	19	-33	161	151	1981	154515	1981	57234245
436	321	3769	-17	-33	60	-33	161	151	1982	154617	1982	57234245
447	326	3809	-18	-33	15	-34	162	144	1983	154671	1983	57234246
450	327	3773	-18	-32	47	-34	162	144	1984	154773	1984	57234264
429	331	3765	-20	-31	-20	-29	159	147	1985	154827	1985	57234265
447	342	3798	-19	-33	40	-29	159	147	1986	154929	1986	57234267
444	326	3797	-21	-34	7	-26	164	152	1987	154983	1987	57234268
445	345	3779	-23	-35	41	-26	164	152	1988	155085	1988	57234268
434	319	3769	-18	-35	55	-32	164	148	1989	155139	1989	57234289
442	341	3804	-19	-33	31	-32	164	148	1990	155241	1990	57234289
