Accl X	Accl Y	Accl Z	Gyro X	Gyro Y	Gyro Z	Mag X	Mag Y	Mag Z	RPkt#	Rtime	LPkt#	Ltime
143	369	3901	-44	-27	29	9	1	97	0	0	0	57224476
121	354	3924	-43	-14	25	9	1	97	1	99	1	57224484
114	357	3915	-41	-24	26	-4	6	90	2	150	2	57224484
121	346	3917	-43	-36	29	-4	6	90	3	249	3	57224487
128	345	3887	-41	-25	25	-2	2	98	4	300	4	57224501
102	362	3907	-41	-15	27	-2	2	98	5	399	5	57224502
130	352	3923	-41	-25	28	-1	7	95	6	450	6	57224509
123	364	3910	-42	-36	26	-1	7	95	7	549	7	57224510
121	339	3915	-40	-27	29	3	1	97	8	599	8	57224526
105	371	3905	-42	-24	26	1	5	97	10	618	9	57224529
130	345	3934	-43	-31	28	1	5	97	11	717	10	57224531
142	343	3924	-41	-30	29	-1	9	95	12	767	11	57224531
129	364	3903	-40	-22	25	-1	9	95	13	866	12	57224552
125	341	3889	-39	-19	26	1	3	105	14	917	13	57224552
116	343	3909	-41	-26	30	1	3	105	15	1016	14	57224555
131	346	3913	-37	-32	26	-1	7	97	16	1067	15	57224555
131	371	3906	-44	-25	24	-1	7	97	17	1166	16	57224558
126	363	3898	-44	-18	29	2	6	100	18	1217	17	57224577
116	367	3879	-41	-23	28	2	6	100	19	1316	18	57224577
120	345	3928	-40	-32	26	0	8	96	20	1366	19	57224581
130	371	3908	-43	-26	29	0	8	96	21	1464	20	57224581
117	361	3917	-40	-19	27	-5	9	95	22	1515	21	57224585
123	349	3902	-43	-21	26	-5	9	95	23	1614	22	57224602
118	349	3913	-43	-27	31	-7	5	99	24	1665	23	57224602
120	347	3891	-42	-30	27	-7	5	99	25	1763	24	57224605
135	354	3925	-42	-28	25	-4	4	94	26	1815	25	57224606
108	347	3906	-40	-20	26	-4	4	94	27	1913	26	57224627
136	357	3919	-42	-23	28	4	4	96	28	1964	27	57224627
122	370	3909	-42	-28	27	4	4	96	29	2063	28	57224629
137	364	3916	-43	-30	28	7	3	97	30	2114	29	57224630
130	367	3926	-45	-26	27	7	3	97	31	2213	30	57224631
128	345	3913	-39	-23	25	-2	8	90	32	2264	31	57224651
124	354	3921	-40	-26	26	-2	8	90	33	2363	32	57224652
120	353	3897	-43	-28	27	0	4	100	34	2414	33	57224655
133	347	3902	-42	-25	24	0	4	100	35	2513	34	57224656
107	353	3914	-40	-23	26	3	5	99	36	2563	35	57224658
129	350	3908	-42	-21	26	3	5	99	37	2662	36	57224663
131	369	3907	-40	-27	28	-3	9	97	38	2713	37	57224663
116	341	3913	-44	-26	27	-3	9	97	39	2811	38	57224678
130	358	3915	-41	-25	26	1	-1	101	40	2863	39	57224678
133	356	3915	-45	-24	26	1	-1	101	41	2961	40	57224683
130	370	3920	-41	-30	27	0	8	96	42	3012	41	57224683
126	367	3905	-42	-27	29	0	8	96	43	3110	42	57224686
133	354	3902	-44	-24	27	-2	0	94	44	3161	43	57224703
114	343	3906	-43	-21	28	-2	0	94	45	3260	44	57224703
126	363	3917	-40	-25	27	-4	12	96	46	3311	45	57224708
128	362	3903	-42	-29	25	-4	12	96	47	3410	46	57224709
123	366	3921	-42	-25	25	3	9	101	48	3461	47	57224712
112	346	3903	-42	-22	29	3	9	101	49	3560	48	57224728
132	352	3898	-43	-23	29	0	8	98	50	3611	49	57224728
130	349	3907	-44	-28	27	0	8	98	51	3709	50	57224731
120	367	3934	-41	-25	29	-2	6	94	52	3760	51	57224732
123	344	3899	-42	-21	24	-2	6	94	53	3859	52	57224752
132	370	3910	-41	-23	26	3	-1	99	54	3910	53	57224752
135	361	3901	-42	-26	30	3	-1	99	55	4009	54	57224754
142	359	3923	-39	-30	27	-8	8	102	56	4060	55	57224758
133	357	3910	-43	-27	27	-8	8	102	57	4159	56	57224758
133	357	3914	-42	-23	27	-5	9	95	58	4210	57	57224777
125	366	3899	-43	-24	28	-5	9	95	59	4309	58	57224777
117	354	3908	-44	-29	27	0	8	100	60	4360	59	57224780
123	365	3927	-44	-26	29	0	8	100	61	4459	60	57224780
135	345	3911	-42	-23	29	0	8	92	62	4510	61	57224783
121	359	3900	-43	-23	24	0	8	92	63	4609	62	57224802
119	350	3925	-40	-28	26	1	3	101	64	4660	63	57224802
132	366	3908	-43	-26	26	1	3	101	65	4759	64	57224805
111	342	3898	-42	-26	24	-3	7	97	66	4810	65	57224805
121	361	3907	-44	-24	27	-3	7	97	67	4909	66	57224808
133	353	3915	-44	-26	29	-7	1	99	68	4960	67	57224827
128	348	3895	-42	-27	26	-7	1	99	69	5059	68	57224827
127	348	3907	-43	-27	29	2	10	100	70	5110	69	57224830
125	357	3919	-42	-24	27	2	10	100	71	5209	70	57224830
129	352	3894	-41	-24	26	1	13	97	72	5260	71	57224838
127	367	3910	-44	-23	26	1	13	97	73	5359	72	57224838
143	357	3899	-40	-27	29	2	6	100	74	5410	73	57224851
116	355	3911	-41	-27	24	2	6	100	75	5509	74	57224852
120	354	3915	-41	-25	27	-6	4	100	76	5560	75	57224855
130	352	3911	-44	-28	28	-6	4	100	77	5658	76	57224862
111	351	3916	-43	-29	26	-2	8	94	78	5710	77	57224863
134	344	3917	-42	-29	28	-2	8	94	79	5809	78	57224876
120	350	3923	-41	-26	27	4	0	98	80	5860	79	57224877
120	358	3894	-42	-25	27	4	0	98	81	5959	80	57224879
122	356	3917	-41	-25	26	-2	6	94	82	6010	81	57224886
143	361	3915	-42	-25	29	-2	6	94	83	6109	82	57224887
118	351	3911	-43	-25	25	-3	7	103	84	6160	83	57224901
99	350	3906	-44	-24	27	-3	7	103	85	6259	84	57224904
129	358	3912	-41	-23	30	2	8	98	86	6310	85	57224905
127	350	3918	-42	-25	28	2	8	98	87	6409	86	57224909
139	368	3922	-42	-24	28	-5	5	93	88	6460	87	57224909
122	340	3920	-43	-24	30	-5	5	93	89	6559	88	57224926
121	359	3913	-40	-27	27	-1	7	99	90	6610	89	57224926
127	354	3912	-43	-25	27	-1	7	99	91	6709	90	57224930
123	348	3914	-44	-28	30	-3	1	93	92	6760	91	57224930
98	350	3914	-41	-24	26	-3	1	93	93	6859	92	57224936
127	352	3910	-41	-23	26	-6	4	98	94	6910	93	57224951
129	356	3912	-43	-25	30	-6	4	98	95	7009	94	57224952
137	349	3911	-40	-29	25	-4	8	102	96	7060	95	57224955
138	342	3921	-43	-24	23	-4	8	102	97	7159	96	57224955
136	359	3926	-39	-21	25	-2	4	94	98	7210	97	57224976
123	357	3904	-39	-23	27	-2	4	94	99	7309	98	57224976
132	363	3894	-41	-24	26	-3	7	99	100	7360	99	57224979
137	353	3926	-43	-21	29	-3	7	99	101	7459	100	57224980
132	351	3905	-39	-27	28	0	8	100	102	7510	101	57224980
137	352	3901	-41	-26	26	0	8	100	103	7609	102	57225001
120	353	3896	-42	-24	27	0	2	98	104	7660	103	57225002
120	337	3896	-41	-23	28	0	2	98	105	7759	104	57225005
124	356	3904	-42	-27	26	2	6	106	106	7810	105	57225005
115	365	3907	-41	-24	26	2	6	106	107	7909	106	57225008
114	360	3913	-40	-25	28	3	7	91	108	7960	107	57225054
127	357	3904	-42	-27	26	3	7	91	109	8059	108	57225055
134	349	3948	-42	-28	29	1	3	99	110	8109	109	57225058
134	364	3918	-44	-23	28	1	3	99	111	8208	110	57225058
132	359	3895	-40	-23	24	0	14	94	112	8259	111	57225060
136	351	3928	-44	-26	26	0	14	94	113	8358	112	57225061
122	347	3902	-43	-27	27	-5	9	97	114	8409	113	57225062
116	355	3905	-43	-27	26	-5	9	97	115	8508	114	57225078
130	362	3911	-41	-26	25	-3	11	95	116	8559	115	57225078
140	345	3894	-43	-25	27	-3	11	95	117	8658	116	57225081
115	358	3897	-43	-26	25	-1	7	95	118	8709	117	57225082
118	345	3912	-41	-22	25	-1	7	95	119	8808	118	57225084
135	346	3911	-42	-27	30	-3	1	99	120	8859	119	57225085
144	353	3920	-40	-23	28	-3	1	99	121	8957	120	57225085
129	364	3909	-41	-25	26	-1	7	99	122	9009	121	57225103
117	368	3899	-43	-23	30	-1	7	99	123	9107	122	57225104
122	352	3921	-45	-28	27	3	5	99	124	9159	123	57225106
120	338	3910	-45	-24	26	3	5	99	125	9258	124	57225107
111	362	3905	-44	-24	30	-4	4	100	126	9309	125	57225109
127	349	3920	-43	-22	29	-4	4	100	127	9408	126	57225115
123	367	3893	-40	-25	28	-3	5	101	128	9459	127	57225116
118	354	3943	-41	-27	30	-3	5	101	129	9557	128	57225126
133	353	3894	-44	-23	29	-1	5	99	130	9608	129	57225127
131	355	3908	-44	-25	27	-1	5	99	131	9707	130	57225129
124	370	3905	-44	-28	28	0	14	94	132	9758	131	57225135
127	346	3898	-46	-29	27	0	14	94	133	9857	132	57225136
137	357	3924	-43	-26	24	1	1	95	134	9908	133	57225151
121	352	3907	-43	-21	26	1	1	95	135	10007	134	57225152
118	347	3913	-41	-22	26	-2	8	100	136	10058	135	57225155
111	355	3902	-43	-30	25	-2	8	100	137	10157	136	57225155
119	349	3896	-44	-28	29	-3	9	93	138	10207	137	57225159
129	351	3913	-43	-24	26	-3	9	93	139	10306	138	57225177
127	363	3889	-41	-25	25	-3	1	101	140	10357	139	57225177
126	352	3885	-44	-25	30	-3	1	101	141	10456	140	57225180
109	354	3907	-41	-26	29	-3	3	97	142	10507	141	57225180
118	375	3896	-42	-25	27	-3	3	97	143	10606	142	57225202
117	352	3894	-43	-23	28	3	3	101	144	10657	143	57225202
120	347	3910	-41	-22	27	3	3	101	145	10756	144	57225204
127	332	3914	-42	-23	24	-1	5	101	146	10807	145	57225205
133	353	3912	-44	-29	28	-1	5	101	147	10906	146	57225205
116	350	3908	-41	-25	28	-1	9	93	148	10957	147	57225227
110	346	3907	-43	-22	24	-1	9	93	149	11056	148	57225228
115	365	3918	-42	-25	27	-1	1	101	150	11107	149	57225229
133	361	3908	-42	-26	30	-1	1	101	151	11206	150	57225230
138	371	3899	-41	-25	28	-3	9	95	152	11257	151	57225231
127	361	3913	-43	-22	28	-3	9	95	153	11356	152	57225252
137	355	3886	-39	-26	28	-1	1	95	154	11407	153	57225252
134	349	3900	-42	-28	24	-1	1	95	155	11506	154	57225255
129	352	3897	-40	-25	27	0	2	98	156	11557	155	57225259
144	365	3917	-42	-24	29	0	2	98	157	11656	156	57225259
122	348	3889	-39	-24	24	0	8	96	158	11707	157	57225277
136	331	3916	-41	-27	27	0	8	96	159	11806	158	57225277
151	359	3914	-42	-28	30	1	5	101	160	11856	159	57225280
135	348	3937	-41	-25	26	1	5	101	161	11955	160	57225280
132	344	3915	-39	-24	26	0	6	92	162	12006	161	57225285
129	361	3919	-38	-27	30	0	6	92	163	12105	162	57225286
114	352	3913	-39	-28	26	-1	5	91	164	12156	163	57225301
147	349	3913	-42	-25	24	-1	5	91	165	12254	164	57225303
131	359	3922	-41	-25	28	-4	8	98	166	12305	165	57225304
130	364	3930	-43	-24	27	-4	8	98	167	12404	166	57225310
115	370	3912	-42	-26	25	-3	3	95	168	12455	167	57225310
129	346	3878	-43	-25	27	-3	3	95	169	12554	168	57225327
129	347	3894	-41	-27	25	-2	2	98	170	12605	169	57225327
140	351	3913	-44	-22	25	-2	2	98	171	12704	170	57225327
117	347	3911	-42	-26	27	-2	8	100	172	12755	171	57225335
127	353	3899	-44	-29	27	-2	8	100	173	12854	172	57225336
136	338	3907	-41	-26	24	0	4	98	174	12905	173	57225351
123	363	3925	-43	-24	25	0	4	98	175	13004	174	57225352
115	371	3913	-42	-24	28	2	4	96	176	13055	175	57225354
106	358	3894	-43	-25	25	2	4	96	177	13154	176	57225359
134	362	3897	-43	-27	30	-2	8	96	178	13205	177	57225359
127	374	3903	-43	-26	30	-2	8	96	179	13304	178	57225377
129	350	3909	-40	-22	28	0	-2	96	180	13355	179	57225377
130	357	3893	-43	-23	30	0	-2	96	181	13454	180	57225380
136	364	3904	-41	-24	30	4	8	98	182	13505	181	57225380
132	349	3898	-42	-28	27	4	8	98	183	13604	182	57225385
144	340	3898	-40	-26	26	0	2	94	184	13655	183	57225404
122	358	3926	-42	-20	28	0	2	94	185	13754	184	57225404
146	365	3910	-40	-27	28	1	-1	101	186	13805	185	57225408
136	351	3922	-44	-28	26	1	-1	101	187	13904	186	57225408
137	345	3922	-40	-25	26	-2	10	94	188	13955	187	57225429
135	351	3888	-40	-24	25	-2	10	94	189	14054	188	57225434
116	351	3906	-42	-26	26	-4	4	96	190	14105	189	57225435
144	352	3881	-44	-30	27	-4	4	96	191	14204	190	57225435
126	340	3919	-41	-22	25	-2	8	96	192	14255	191	57225436
118	359	3916	-42	-21	23	-2	8	96	193	14354	192	57225438
112	346	3907	-40	-26	28	2	6	96	194	14405	193	57225438
120	358	3900	-44	-28	27	2	6	96	195	14504	194	57225453
123	365	3904	-44	-24	26	0	6	100	196	14555	195	57225454
133	368	3915	-43	-24	31	0	6	100	197	14654	196	57225454
136	344	3930	-44	-23	28	-1	7	93	198	14705	197	57225504
109	367	3931	-46	-26	25	-1	7	93	199	14804	198	57225505
136	349	3895	-43	-27	28	-1	5	95	200	14855	199	57225508
134	363	3899	-41	-23	29	-1	5	95	201	14954	200	57225508
139	368	3899	-41	-21	25	-2	8	98	202	15005	201	57225510
124	354	3913	-45	-27	30	-2	8	98	203	15104	202	57225512
124	359	3914	-40	-30	28	0	2	90	204	15155	203	57225512
133	362	3904	-42	-24	24	0	2	90	205	15254	204	57225515
117	370	3902	-39	-20	27	1	13	93	206	15305	205	57225515
139	364	3908	-43	-26	24	1	13	93	207	15403	206	57225519
113	350	3926	-41	-30	25	-1	11	95	208	15454	207	57225519
125	354	3922	-42	-24	27	-1	11	95	209	15553	208	57225521
136	356	3935	-42	-23	27	0	2	96	210	15604	209	57225535
132	361	3900	-44	-26	26	0	2	96	211	15703	210	57225536
134	357	3906	-42	-28	28	3	7	97	212	15754	211	57225539
131	352	3902	-44	-25	27	3	7	97	213	15853	212	57225539
130	353	3899	-44	-26	26	-7	5	95	214	15904	213	57225542
113	356	3905	-44	-26	27	-7	5	95	215	16003	214	57225544
121	356	3906	-44	-24	26	-2	8	98	216	16054	215	57225545
117	363	3913	-43	-24	27	-2	8	98	217	16153	216	57225562
130	362	3905	-42	-25	28	-1	5	99	218	16204	217	57225562
117	347	3907	-42	-23	29	-1	5	99	219	16303	218	57225569
131	350	3921	-39	-26	28	1	9	95	220	16354	219	57225569
110	346	3937	-39	-24	29	1	9	95	221	16453	220	57225588
124	355	3905	-41	-27	30	2	-2	98	222	16504	221	57225589
135	358	3908	-44	-26	24	2	-2	98	223	16603	222	57225589
144	352	3925	-41	-27	28	0	10	94	224	16654	223	57225593
141	359	3881	-44	-24	26	0	10	94	225	16753	224	57225595
124	361	3905	-41	-25	24	6	0	96	226	16804	225	57225610
122	341	3904	-42	-25	24	6	0	96	227	16903	226	57225610
118	352	3902	-42	-28	26	0	4	98	228	16954	227	57225613
130	369	3907	-44	-26	24	0	4	98	229	17053	228	57225618
137	357	3916	-42	-24	25	1	11	97	230	17104	229	57225618
138	356	3922	-43	-24	28	1	11	97	231	17203	230	57225635
118	365	3913	-41	-26	25	-3	7	101	232	17254	231	57225635
130	364	3915	-43	-24	25	-3	7	101	233	17353	232	57225639
132	353	3904	-39	-27	31	2	6	94	234	17403	233	57225639
126	343	3890	-43	-25	27	2	6	94	235	17502	234	57225639
127	338	3907	-43	-24	27	1	7	99	236	17553	235	57225663
124	350	3892	-43	-27	29	1	7	99	237	17651	236	57225663
140	367	3947	-42	-27	30	5	1	101	238	17703	237	57225693
124	350	3927	-43	-23	26	5	1	101	239	17801	238	57225694
125	349	3890	-40	-25	29	-4	2	98	240	17852	239	57225695
114	359	3906	-43	-23	26	-4	2	98	241	17950	240	57225710
141	360	3935	-38	-23	24	-1	9	99	242	18001	241	57225714
131	368	3902	-42	-22	25	-1	9	99	243	18099	242	57225714
130	340	3930	-41	-26	27	-5	9	99	244	18150	243	57225714
128	344	3919	-42	-28	28	-5	9	99	245	18249	244	57225718
109	358	3909	-37	-26	30	0	10	96	246	18300	245	57225722
127	351	3912	-41	-21	28	0	10	96	247	18399	246	57225723
122	358	3912	-41	-24	25	-3	-1	91	248	18450	247	57225735
129	346	3890	-44	-25	32	-3	-1	91	249	18549	248	57225735
125	367	3909	-41	-25	30	2	6	96	250	18600	249	57225739
125	353	3928	-44	-24	27	2	6	96	251	18699	250	57225744
142	357	3915	-41	-24	25	-2	6	98	252	18750	251	57225746
117	368	3891	-43	-23	27	-2	6	98	253	18849	252	57225746
127	362	3917	-41	-27	26	-2	6	94	254	18900	253	57225746
139	368	3897	-42	-27	27	-2	6	94	255	18999	254	57225759
139	359	3913	-42	-26	28	1	1	97	256	19050	255	57225759
130	341	3914	-43	-24	25	1	1	97	257	19149	256	57225762
125	344	3916	-41	-25	26	-3	7	95	258	19200	257	57225763
104	346	3900	-41	-29	28	-3	7	95	259	19299	258	57225765
124	358	3919	-43	-28	27	0	8	94	260	19350	259	57225768
118	346	3892	-44	-22	27	0	8	94	261	19449	260	57225768
123	344	3909	-40	-24	28	5	7	101	262	19500	261	57225785
129	366	3893	-40	-26	29	5	7	101	263	19599	262	57225789
133	368	3907	-41	-27	25	-2	8	100	264	19650	263	57225794
131	360	3921	-42	-24	28	-2	8	100	265	19749	264	57225794
131	359	3913	-41	-23	26	1	1	101	266	19800	265	57225809
127	360	3932	-41	-25	28	1	1	101	267	19899	266	57225811
144	357	3913	-42	-26	28	-1	1	95	268	19950	267	57225815
142	354	3906	-44	-24	27	-1	1	95	269	20049	268	57225817
111	346	3916	-40	-26	26	6	12	96	270	20100	269	57225818
112	367	3920	-41	-25	28	6	12	96	271	20199	270	57225834
127	359	3919	-41	-28	27	-2	0	100	272	20250	271	57225835
134	349	3915	-43	-26	28	-2	0	100	273	20349	272	57225835
122	354	3909	-39	-25	30	0	10	100	274	20400	273	57225842
114	364	3899	-42	-22	29	0	10	100	275	20499	274	57225843
127	366	3929	-44	-27	25	0	4	100	276	20550	275	57225859
123	356	3914	-44	-29	26	0	4	100	277	20648	276	57225860
134	364	3903	-42	-29	29	-3	5	99	278	20700	277	57225860
123	364	3925	-42	-25	26	-3	5	99	279	20799	278	57225868
130	340	3899	-42	-25	28	-3	3	103	280	20850	279	57225868
131	358	3903	-41	-25	29	-3	3	103	281	20949	280	57225884
143	351	3894	-40	-27	28	1	-1	99	282	21000	281	57225885
140	365	3894	-42	-27	27	1	-1	99	283	21099	282	57225885
118	352	3885	-42	-25	30	0	12	92	284	21150	283	57225892
122	379	3916	-43	-24	25	0	12	92	285	21249	284	57225895
106	344	3912	-43	-24	26	-1	5	93	286	21300	285	57225895
134	351	3892	-42	-24	29	-1	5	93	287	21399	286	57225909
121	366	3917	-41	-28	24	-5	7	95	288	21450	287	57225909
129	343	3899	-43	-26	26	-5	7	95	289	21549	288	57225916
133	356	3912	-43	-26	30	0	10	96	290	21600	289	57225918
128	352	3926	-41	-26	27	0	10	96	291	21699	290	57225936
135	344	3940	-40	-26	25	-1	3	105	292	21750	291	57225936
123	328	3930	-44	-25	28	-1	3	105	293	21849	292	57225937
129	354	3891	-44	-26	30	-2	6	94	294	21900	293	57225940
107	354	3918	-42	-24	25	-2	6	94	295	21999	294	57225940
130	340	3903	-39	-26	29	-4	8	96	296	22050	295	57225961
123	358	3909	-41	-25	28	-4	8	96	297	22149	296	57225962
130	349	3931	-41	-24	28	3	3	103	298	22200	297	57225964
133	355	3909	-40	-26	28	3	3	103	299	22299	298	57225965
141	358	3932	-40	-26	27	-5	5	97	300	22350	299	57225995
118	347	3908	-39	-22	25	-5	5	97	301	22449	300	57225997
130	356	3909	-41	-23	27	3	5	99	302	22500	301	57225997
114	352	3910	-44	-27	26	3	5	99	303	22599	302	57225997
129	347	3907	-41	-29	27	3	15	95	304	22650	303	57225998
137	351	3930	-42	-24	27	3	15	95	305	22749	304	57225998
115	349	3904	-44	-25	29	-7	5	97	306	22800	305	57226010
129	348	3918	-40	-27	26	-7	5	97	307	22899	306	57226010
122	353	3904	-40	-25	28	3	3	103	308	22950	307	57226012
122	352	3902	-43	-28	27	3	3	103	309	23049	308	57226014
129	348	3904	-43	-29	24	-3	3	95	310	23100	309	57226014
122	356	3898	-42	-21	28	-3	3	95	311	23199	310	57226034
124	352	3898	-43	-21	27	-2	2	98	312	23250	311	57226034
119	359	3919	-44	-24	25	-2	2	98	313	23349	312	57226037
141	360	3925	-40	-28	28	-1	7	97	314	23400	313	57226039
121	361	3906	-41	-25	28	-1	7	97	315	23499	314	57226040
119	342	3907	-45	-23	28	1	9	95	316	23550	315	57226060
110	356	3896	-43	-25	28	1	9	95	317	23649	316	57226061
132	341	3930	-43	-23	29	-2	10	98	318	23700	317	57226064
138	348	3917	-42	-25	25	-2	10	98	319	23798	318	57226065
124	358	3899	-40	-26	26	-4	6	96	320	23850	319	57226066
141	346	3884	-40	-25	25	-4	6	96	321	23949	320	57226084
104	357	3876	-40	-26	26	-5	5	103	322	24000	321	57226084
124	349	3910	-45	-26	29	-5	5	103	323	24099	322	57226088
137	350	3927	-42	-28	28	0	2	92	324	24150	323	57226088
123	358	3908	-41	-25	24	0	2	92	325	24249	324	57226090
116	353	3916	-42	-24	27	-1	11	95	326	24300	325	57226109
134	355	3922	-42	-27	28	-1	11	95	327	24399	326	57226110
121	352	3920	-41	-27	27	2	6	98	328	24450	327	57226113
120	348	3912	-45	-27	27	2	6	98	329	24549	328	57226113
140	348	3903	-44	-26	32	0	6	94	330	24600	329	57226115
122	352	3889	-44	-24	27	0	6	94	331	24699	330	57226134
135	363	3918	-44	-25	27	-3	3	103	332	24750	331	57226134
117	353	3891	-43	-25	26	-3	3	103	333	24849	332	57226137
112	342	3895	-40	-26	27	1	7	97	334	24900	333	57226138
127	359	3891	-42	-21	26	1	7	97	335	24999	334	57226140
119	341	3907	-43	-25	29	0	6	94	336	25050	335	57226159
133	365	3919	-42	-24	27	0	6	94	337	25149	336	57226160
136	347	3913	-41	-24	28	-1	9	105	338	25200	337	57226163
119	334	3925	-43	-23	28	-1	9	105	339	25299	338	57226163
123	353	3913	-42	-22	28	3	5	93	340	25350	339	57226165
136	353	3902	-44	-25	28	3	5	93	341	25449	340	57226185
142	357	3913	-44	-25	31	2	6	98	342	25500	341	57226186
128	355	3899	-44	-23	27	2	6	98	343	25599	342	57226189
111	354	3918	-41	-26	25	-4	8	96	344	25650	343	57226189
127	366	3878	-42	-27	28	-4	8	96	345	25749	344	57226209
122	354	3913	-42	-25	26	-2	6	94	346	25800	345	57226209
138	365	3913	-45	-26	25	-2	6	94	347	25899	346	57226211
110	366	3919	-41	-25	26	0	8	100	348	25950	347	57226213
132	368	3930	-41	-22	27	0	8	100	349	26049	348	57226213
121	357	3919	-44	-25	23	0	8	94	350	26100	349	57226234
123	334	3917	-42	-25	25	0	8	94	351	26199	350	57226234
136	352	3908	-42	-25	29	-2	2	98	352	26250	351	57226236
121	361	3890	-42	-23	25	-2	2	98	353	26349	352	57226238
136	356	3914	-40	-26	26	-5	3	99	354	26400	353	57226239
138	354	3884	-42	-23	27	-5	3	99	355	26499	354	57226245
122	359	3911	-42	-23	26	2	4	96	356	26550	355	57226246
118	361	3921	-43	-25	29	2	4	96	357	26649	356	57226259
129	359	3918	-44	-26	29	-5	-1	99	358	26700	357	57226260
139	347	3919	-40	-25	27	-5	-1	99	359	26799	358	57226267
131	360	3904	-37	-23	26	-5	7	93	360	26850	359	57226296
112	367	3911	-40	-24	28	-5	7	93	361	26949	360	57226297
127	358	3893	-41	-23	28	1	3	99	362	27000	361	57226299
137	348	3902	-40	-24	27	1	3	99	363	27099	362	57226300
110	360	3908	-42	-25	29	0	14	100	364	27150	363	57226301
115	372	3923	-44	-25	25	0	14	100	365	27249	364	57226304
121	362	3915	-40	-25	25	-6	6	94	366	27300	365	57226305
133	355	3917	-39	-23	29	-6	6	94	367	27399	366	57226307
126	359	3904	-42	-27	28	-2	2	98	368	27450	367	57226336
119	356	3904	-45	-24	26	-2	2	98	369	27549	368	57226337
119	362	3921	-42	-28	29	-2	10	100	370	27600	369	57226340
124	346	3907	-43	-26	27	-2	10	100	371	27699	370	57226340
126	345	3886	-45	-24	27	-3	5	95	372	27750	371	57226343
127	359	3922	-44	-22	30	-3	5	95	373	27849	372	57226345
125	350	3911	-39	-25	27	0	8	100	374	27900	373	57226345
122	371	3886	-41	-29	26	0	8	100	375	27999	374	57226360
124	341	3907	-41	-26	24	-2	2	96	376	28050	375	57226360
133	363	3905	-43	-23	27	-2	2	96	377	28149	376	57226364
126	345	3920	-41	-26	25	-2	6	100	378	28200	377	57226365
127	353	3920	-43	-25	27	-2	6	100	379	28299	378	57226367
123	355	3928	-41	-27	26	-3	5	97	380	28350	379	57226369
103	365	3917	-42	-25	26	-3	5	97	381	28449	380	57226369
135	359	3903	-42	-23	28	-7	7	95	382	28500	381	57226385
118	363	3931	-43	-24	26	-7	7	95	383	28599	382	57226386
128	364	3896	-41	-27	25	5	3	99	384	28650	383	57226388
128	348	3911	-45	-24	27	5	3	99	385	28749	384	57226394
106	346	3915	-42	-23	29	-1	9	99	386	28800	385	57226395
128	360	3904	-43	-24	25	-1	9	99	387	28899	386	57226410
132	340	3916	-42	-25	28	-1	3	99	388	28950	387	57226410
117	344	3897	-42	-25	30	-1	3	99	389	29049	388	57226411
120	359	3930	-41	-30	26	-4	8	90	390	29100	389	57226419
126	355	3912	-41	-26	27	-4	8	90	391	29199	390	57226419
137	326	3891	-41	-24	27	-3	5	101	392	29250	391	57226435
134	351	3909	-42	-27	25	-3	5	101	393	29349	392	57226436
138	357	3913	-42	-27	28	0	6	102	394	29400	393	57226438
132	351	3906	-45	-27	28	0	6	102	395	29499	394	57226443
118	352	3903	-45	-25	25	-6	6	96	396	29550	395	57226444
117	353	3895	-43	-23	25	-6	6	96	397	29649	396	57226460
112	354	3917	-41	-24	25	0	4	100	398	29700	397	57226460
130	358	3895	-44	-24	25	0	4	100	399	29799	398	57226461
115	346	3894	-42	-25	26	0	6	100	400	29850	399	57226469
123	361	3907	-42	-25	29	0	6	100	401	29949	400	57226470
121	359	3877	-41	-25	26	-4	0	98	402	30000	401	57226484
124	346	3889	-44	-23	25	-4	0	98	403	30099	402	57226484
131	356	3928	-42	-23	27	0	6	98	404	30150	403	57226486
108	356	3908	-43	-23	27	0	6	98	405	30249	404	57226493
119	356	3895	-41	-24	26	0	12	94	406	30300	405	57226493
128	361	3922	-42	-24	28	0	12	94	407	30399	406	57226509
147	355	3898	-43	-24	28	-1	1	95	408	30450	407	57226509
146	347	3871	-44	-23	25	-1	1	95	409	30549	408	57226513
140	363	3903	-41	-24	30	2	6	98	410	30600	409	57226513
125	346	3910	-42	-26	30	2	6	98	411	30699	410	57226513
101	357	3911	-42	-26	27	1	3	99	412	30750	411	57226535
132	353	3919	-40	-27	31	1	3	99	413	30849	412	57226535
125	357	3901	-39	-25	29	-1	3	93	414	30900	413	57226538
125	348	3914	-40	-25	28	-1	3	93	415	30999	414	57226538
119	351	3910	-44	-26	28	-2	2	92	416	31050	415	57226541
128	355	3924	-41	-27	27	-2	2	92	417	31149	416	57226559
124	355	3922	-41	-26	24	-4	6	96	418	31200	417	57226559
129	351	3931	-42	-25	28	-4	6	96	419	31299	418	57226563
126	354	3901	-41	-24	28	2	8	98	420	31350	419	57226563
132	347	3910	-43	-25	25	2	8	98	421	31449	420	57226566
136	348	3918	-42	-27	28	-5	3	95	422	31500	421	57226584
121	346	3891	-42	-24	30	-5	3	95	423	31599	422	57226584
129	349	3903	-40	-26	27	2	6	100	424	31650	423	57226587
135	352	3914	-40	-27	29	2	6	100	425	31749	424	57226588
128	353	3894	-40	-24	28	-3	5	91	426	31800	425	57226591
107	333	3922	-42	-24	25	-3	5	91	427	31899	426	57226609
128	347	3908	-40	-24	27	-2	8	94	428	31950	427	57226609
124	346	3901	-42	-23	29	-2	8	94	429	32049	428	57226614
125	332	3897	-44	-25	25	3	7	101	430	32100	429	57226615
134	339	3905	-41	-27	29	3	7	101	431	32199	430	57226616
130	366	3900	-39	-26	27	-2	2	90	432	32250	431	57226634
121	362	3901	-40	-21	28	-2	2	90	433	32349	432	57226634
117	351	3919	-41	-25	28	-1	5	99	434	32400	433	57226637
126	356	3926	-43	-30	28	-1	5	99	435	32499	434	57226638
119	365	3909	-40	-27	28	-5	5	97	436	32550	435	57226641
123	357	3928	-42	-21	28	-5	5	97	437	32649	436	57226659
131	364	3913	-41	-23	28	-1	11	97	438	32700	437	57226659
132	356	3918	-42	-27	27	-1	11	97	439	32799	438	57226662
118	346	3908	-40	-26	28	2	10	96	440	32850	439	57226663
134	349	3911	-41	-24	30	2	10	96	441	32949	440	57226684
123	344	3913	-41	-26	26	-1	1	93	442	33000	441	57226684
122	357	3894	-42	-25	24	-1	1	93	443	33099	442	57226686
110	347	3919	-41	-25	28	0	4	98	444	33150	443	57226687
145	350	3896	-42	-23	26	0	4	98	445	33248	444	57226688
111	340	3919	-40	-26	25	-3	7	95	446	33300	445	57226709
126	363	3901	-43	-25	27	-3	7	95	447	33399	446	57226709
134	367	3905	-43	-25	28	-4	8	96	448	33450	447	57226711
132	356	3883	-44	-26	26	-4	8	96	449	33549	448	57226712
112	354	3911	-42	-24	31	0	8	96	450	33600	449	57226713
137	347	3877	-40	-24	27	0	8	96	451	33699	450	57226735
119	343	3917	-39	-26	24	-1	7	97	452	33750	451	57226735
133	356	3944	-43	-27	27	-1	7	97	453	33849	452	57226736
128	365	3915	-40	-22	28	1	3	99	454	33900	453	57226737
143	370	3890	-43	-22	26	1	3	99	455	33999	454	57226738
138	358	3920	-43	-26	25	-7	9	99	456	34050	455	57226761
128	340	3914	-42	-27	29	-7	9	99	457	34149	456	57226761
139	352	3924	-41	-23	26	-1	7	101	458	34200	457	57226764
124	349	3931	-42	-24	25	-1	7	101	459	34299	458	57226765
123	361	3906	-43	-21	28	-3	3	97	460	34350	459	57226765
116	346	3926	-45	-26	26	-3	3	97	461	34449	460	57226782
141	359	3905	-44	-28	26	1	7	99	462	34500	461	57226783
152	357	3891	-42	-25	28	1	7	99	463	34599	462	57226785
129	357	3895	-41	-24	24	7	9	101	464	34650	463	57226786
136	346	3908	-42	-24	27	7	9	101	465	34749	464	57226786
134	360	3893	-42	-26	29	-4	6	98	466	34800	465	57226797
127	370	3928	-43	-25	28	-4	6	98	467	34899	466	57226799
138	353	3912	-42	-24	27	-3	7	99	468	34950	467	57226800
129	348	3903	-41	-24	30	-3	7	99	469	35049	468	57226822
121	357	3906	-42	-26	26	-2	12	98	470	35100	469	57226823
133	341	3902	-42	-24	24	-2	12	98	471	35199	470	57226826
134	350	3892	-43	-24	28	-4	4	100	472	35250	471	57226826
107	332	3908	-43	-25	26	-4	4	100	473	35349	472	57226831
135	364	3889	-43	-25	26	-1	9	91	474	35400	473	57226831
115	355	3909	-45	-25	26	-1	9	91	475	35499	474	57226846
121	352	3905	-41	-25	28	2	4	98	476	35550	475	57226847
128	339	3919	-43	-25	27	2	4	98	477	35649	476	57226848
112	358	3918	-40	-25	26	-2	8	96	478	35700	477	57226871
134	362	3913	-40	-26	26	-2	8	96	479	35799	478	57226872
110	360	3924	-41	-28	24	-5	5	99	480	35850	479	57226874
118	348	3916	-43	-24	26	-5	5	99	481	35949	480	57226875
135	362	3920	-42	-26	26	0	8	96	482	36000	481	57226875
118	360	3910	-42	-25	26	0	8	96	483	36099	482	57226896
132	358	3891	-41	-24	31	2	4	100	484	36150	483	57226896
127	345	3902	-40	-25	29	2	4	100	485	36249	484	57226898
130	361	3901	-42	-24	26	4	4	100	486	36300	485	57226900
130	352	3888	-42	-26	28	4	4	100	487	36399	486	57226900
130	360	3906	-43	-27	29	0	4	92	488	36450	487	57226920
111	345	3908	-44	-23	27	0	4	92	489	36549	488	57226920
121	346	3901	-43	-22	27	1	3	99	490	36600	489	57226924
136	363	3901	-41	-24	28	1	3	99	491	36699	490	57226924
134	359	3896	-42	-22	27	-4	6	98	492	36750	491	57226925
123	352	3891	-39	-21	26	-4	6	98	493	36849	492	57226931
133	366	3915	-41	-24	26	2	8	92	494	36900	493	57226932
117	355	3904	-44	-23	25	2	8	92	495	36999	494	57226945
136	356	3911	-42	-24	26	3	3	97	496	37050	495	57226973
125	362	3897	-41	-25	29	3	3	97	497	37149	496	57226973
129	345	3933	-42	-25	27	-4	6	92	498	37200	497	57226977
122	362	3890	-44	-23	23	-4	6	92	499	37299	498	57226977
126	355	3891	-42	-24	29	-3	5	95	500	37350	499	57226979
120	358	3901	-42	-26	27	-3	5	95	501	37449	500	57226980
118	352	3894	-41	-26	25	-6	10	96	502	37500	501	57226981
128	353	3900	-43	-23	29	-6	10	96	503	37599	502	57226997
133	356	3926	-44	-23	24	-2	4	98	504	37650	503	57226997
145	352	3906	-42	-27	26	-2	4	98	505	37749	504	57227000
125	353	3944	-38	-28	27	6	6	104	506	37800	505	57227001
131	355	3913	-41	-26	26	6	6	104	507	37899	506	57227003
133	350	3911	-40	-26	27	2	8	98	508	37950	507	57227005
130	350	3907	-45	-19	28	2	8	98	509	38049	508	57227006
121	346	3901	-42	-25	25	-5	3	97	510	38100	509	57227022
125	348	3900	-43	-30	26	-5	3	97	511	38198	510	57227022
132	349	3925	-40	-28	27	-2	14	100	512	38250	511	57227024
124	361	3908	-41	-25	26	-2	14	100	513	38349	512	57227030
140	371	3923	-42	-23	25	1	7	95	514	38400	513	57227031
134	351	3901	-44	-22	28	1	7	95	515	38499	514	57227045
120	355	3888	-40	-24	28	-3	3	95	516	38550	515	57227046
123	358	3912	-42	-24	26	-3	3	95	517	38649	516	57227048
124	353	3908	-42	-24	27	2	14	96	518	38700	517	57227055
135	356	3927	-44	-21	27	2	14	96	519	38799	518	57227056
135	359	3929	-42	-23	27	-1	3	99	520	38850	519	57227070
127	347	3906	-42	-24	28	-1	3	99	521	38949	520	57227071
129	353	3916	-38	-25	27	0	4	102	522	39000	521	57227073
116	356	3918	-44	-27	25	0	4	102	523	39099	522	57227081
121	349	3918	-42	-27	26	-6	6	94	524	39150	523	57227081
129	355	3923	-40	-23	24	-6	6	94	525	39249	524	57227095
123	365	3916	-41	-25	26	3	5	101	526	39300	525	57227096
132	348	3915	-44	-21	26	3	5	101	527	39399	526	57227098
109	338	3909	-41	-26	28	2	6	94	528	39450	527	57227106
125	345	3897	-43	-26	26	2	6	94	529	39549	528	57227106
112	350	3902	-42	-26	26	-1	3	99	530	39600	529	57227120
115	343	3900	-43	-22	28	-1	3	99	531	39699	530	57227121
116	352	3893	-39	-23	25	1	3	101	532	39750	531	57227123
133	363	3919	-39	-28	26	1	3	101	533	39849	532	57227129
134	359	3898	-41	-26	27	3	3	93	534	39900	533	57227129
128	368	3897	-43	-24	27	3	3	93	535	39999	534	57227147
137	353	3915	-40	-25	25	-7	9	93	536	40050	535	57227147
117	362	3906	-40	-25	26	-7	9	93	537	40149	536	57227150
130	353	3910	-40	-27	26	3	5	99	538	40200	537	57227150
124	352	3900	-42	-27	27	3	5	99	539	40299	538	57227154
130	342	3899	-42	-23	28	2	4	100	540	40350	539	57227173
118	347	3899	-43	-24	24	2	4	100	541	40449	540	57227173
132	357	3877	-42	-30	26	-3	9	91	542	40500	541	57227176
134	361	3897	-42	-25	31	-3	9	91	543	40599	542	57227177
122	357	3911	-41	-24	28	0	16	98	544	40650	543	57227179
112	367	3909	-45	-21	26	0	16	98	545	40749	544	57227197
133	352	3903	-44	-25	28	-1	3	99	546	40800	545	57227197
129	350	3920	-43	-27	26	-1	3	99	547	40899	546	57227200
131	352	3901	-42	-24	27	-6	6	100	548	40950	547	57227201
138	344	3909	-44	-24	27	-6	6	100	549	41049	548	57227204
119	344	3901	-40	-23	25	-2	4	96	550	41100	549	57227221
126	349	3904	-42	-25	27	-2	4	96	551	41199	550	57227222
121	344	3912	-43	-25	28	-9	5	97	552	41250	551	57227225
140	348	3900	-42	-22	28	-9	5	97	553	41349	552	57227225
109	357	3904	-42	-24	25	0	8	92	554	41400	553	57227229
120	365	3933	-41	-28	28	0	8	92	555	41499	554	57227245
123	360	3896	-42	-28	28	3	5	99	556	41550	555	57227246
124	355	3909	-41	-25	27	3	5	99	557	41649	556	57227249
112	350	3924	-39	-25	31	2	10	98	558	41700	557	57227249
112	363	3924	-38	-23	29	2	10	98	559	41799	558	57227252
135	373	3897	-39	-26	26	-5	3	97	560	41850	559	57227272
126	368	3916	-44	-24	27	-5	3	97	561	41949	560	57227285
124	359	3914	-43	-27	26	0	4	100	562	42000	561	57227286
130	359	3930	-42	-26	25	0	4	100	563	42099	562	57227287
134	350	3929	-43	-26	27	-5	11	97	564	42150	563	57227295
137	347	3888	-46	-23	29	-5	11	97	565	42249	564	57227295
131	360	3896	-42	-23	27	0	6	100	566	42300	565	57227297
118	353	3905	-42	-26	28	0	6	100	567	42399	566	57227299
113	365	3917	-41	-28	30	-1	9	99	568	42450	567	57227299
126	348	3907	-43	-24	27	-1	9	99	569	42549	568	57227320
123	348	3903	-43	-23	28	-3	3	91	570	42600	569	57227320
110	363	3876	-41	-25	31	-3	3	91	571	42699	570	57227322
132	352	3906	-40	-26	27	0	2	96	572	42750	571	57227324
113	345	3917	-41	-25	27	0	2	96	573	42849	572	57227324
120	343	3932	-42	-25	30	4	8	96	574	42900	573	57227345
133	356	3907	-43	-26	28	4	8	96	575	42999	574	57227345
133	347	3905	-40	-27	25	-5	5	99	576	43050	575	57227347
128	349	3916	-44	-26	28	-5	5	99	577	43149	576	57227349
129	343	3925	-43	-24	25	1	5	97	578	43200	577	57227349
121	346	3906	-42	-21	25	1	5	97	579	43299	578	57227370
122	360	3899	-41	-25	29	-6	2	98	580	43350	579	57227371
131	332	3912	-41	-26	30	-6	2	98	581	43449	580	57227372
130	355	3913	-44	-25	27	0	6	100	582	43500	581	57227374
132	340	3901	-42	-23	28	0	6	100	583	43599	582	57227374
106	345	3902	-41	-25	27	-1	11	95	584	43650	583	57227395
127	354	3898	-43	-27	27	-1	11	95	585	43749	584	57227396
132	356	3902	-40	-28	29	-1	5	91	586	43800	585	57227398
121	344	3911	-41	-26	25	-1	5	91	587	43899	586	57227399
121	346	3936	-41	-24	24	0	14	102	588	43950	587	57227399
120	342	3887	-43	-26	27	0	14	102	589	44049	588	57227420
143	359	3903	-39	-27	26	-3	7	97	590	44100	589	57227421
128	355	3904	-41	-25	24	-3	7	97	591	44199	590	57227423
138	347	3904	-41	-23	27	2	0	100	592	44250	591	57227425
125	338	3917	-44	-24	28	2	0	100	593	44349	592	57227429
135	355	3895	-43	-29	25	0	4	98	594	44400	593	57227445
122	363	3916	-45	-26	26	0	4	98	595	44499	594	57227446
144	352	3920	-42	-27	27	-4	6	98	596	44550	595	57227449
123	354	3897	-44	-22	26	-4	6	98	597	44649	596	57227449
131	343	3917	-39	-24	26	0	8	98	598	44700	597	57227450
129	361	3925	-42	-24	27	0	8	98	599	44799	598	57227470
121	353	3904	-41	-25	26	-4	6	96	600	44850	599	57227471
126	355	3928	-43	-21	29	-4	6	96	601	44949	600	57227475
111	357	3921	-43	-23	28	-3	3	97	602	45000	601	57227475
137	355	3909	-44	-26	26	-3	3	97	603	45099	602	57227476
125	340	3905	-42	-25	25	-2	8	94	604	45150	603	57227495
127	347	3917	-42	-25	27	-2	8	94	605	45249	604	57227496
110	345	3924	-41	-23	28	2	8	96	606	45300	605	57227499
130	357	3910	-42	-23	27	2	8	96	607	45399	606	57227499
124	354	3897	-41	-25	29	-1	11	97	608	45450	607	57227501
116	360	3905	-39	-23	25	-1	11	97	609	45549	608	57227520
124	356	3923	-40	-25	24	0	10	96	610	45600	609	57227520
144	367	3873	-43	-25	28	0	10	96	611	45699	610	57227524
126	354	3901	-41	-25	25	-1	3	99	612	45750	611	57227524
136	347	3885	-43	-24	25	-1	3	99	613	45849	612	57227526
124	350	3905	-43	-26	27	4	8	100	614	45900	613	57227545
129	350	3909	-43	-28	28	4	8	100	615	45999	614	57227546
127	354	3908	-40	-29	27	6	12	94	616	46050	615	57227549
130	354	3918	-43	-24	26	6	12	94	617	46149	616	57227549
132	359	3912	-43	-24	27	0	10	94	618	46200	617	57227551
121	351	3890	-45	-22	26	0	10	94	619	46299	618	57227570
121	351	3913	-44	-25	31	-4	2	98	620	46350	619	57227571
136	370	3889	-44	-26	28	-4	2	98	621	46449	620	57227574
145	358	3898	-43	-26	25	-5	3	101	622	46500	621	57227574
135	360	3935	-45	-18	27	-5	3	101	623	46599	622	57227577
122	361	3914	-40	-25	27	4	6	96	624	46650	623	57227578
127	368	3920	-44	-24	26	4	6	96	625	46749	624	57227578
117	351	3930	-41	-26	27	-4	10	102	626	46800	625	57227623
127	361	3911	-42	-26	25	-4	10	102	627	46899	626	57227623
137	343	3923	-40	-27	24	-1	11	95	628	46950	627	57227626
137	362	3905	-42	-27	28	-1	11	95	629	47049	628	57227627
123	339	3919	-42	-26	27	-6	4	96	630	47100	629	57227629
122	343	3913	-43	-25	26	-6	4	96	631	47199	630	57227630
133	358	3930	-40	-25	28	2	4	96	632	47250	631	57227631
131	342	3910	-39	-28	30	2	4	96	633	47349	632	57227647
124	342	3909	-41	-25	28	3	9	95	634	47400	633	57227647
123	345	3913	-41	-27	29	3	9	95	635	47498	634	57227649
132	342	3912	-41	-21	28	-1	3	95	636	47549	635	57227650
114	355	3901	-44	-25	26	-1	3	95	637	47647	636	57227651
125	343	3932	-41	-28	26	-2	4	98	638	47698	637	57227654
140	349	3925	-40	-28	28	-2	4	98	639	47797	638	57227655
130	360	3911	-43	-25	25	1	7	97	640	47848	639	57227656
131	352	3911	-44	-23	26	1	7	97	641	47947	640	57227670
149	357	3910	-43	-29	29	-2	0	102	642	47998	641	57227670
129	353	3908	-45	-25	26	-2	0	102	643	48097	642	57227678
134	353	3921	-39	-23	24	-5	5	91	644	48148	643	57227678
126	341	3920	-38	-25	29	-5	5	91	645	48247	644	57227681
118	361	3908	-38	-26	27	-2	2	96	646	48298	645	57227695
102	357	3911	-42	-25	27	-2	2	96	647	48397	646	57227695
128	346	3936	-41	-26	29	-5	9	93	648	48448	647	57227702
103	352	3909	-41	-26	23	-5	9	93	649	48547	648	57227703
124	365	3929	-39	-26	23	-4	10	94	650	48598	649	57227706
108	353	3918	-39	-26	28	-4	10	94	651	48697	650	57227721
134	362	3919	-40	-26	27	0	10	96	652	48748	651	57227721
136	360	3903	-41	-24	27	0	10	96	653	48847	652	57227728
123	346	3920	-39	-25	29	2	8	98	654	48898	653	57227728
113	347	3906	-41	-23	26	2	8	98	655	48997	654	57227730
128	359	3886	-41	-25	25	-1	3	99	656	49048	655	57227745
118	364	3923	-43	-25	29	-1	3	99	657	49147	656	57227746
136	355	3899	-42	-22	28	-5	5	101	658	49198	657	57227754
129	354	3899	-42	-24	25	-5	5	101	659	49297	658	57227755
129	348	3895	-40	-27	29	-1	9	93	660	49348	659	57227770
132	353	3901	-42	-22	28	-1	9	93	661	49447	660	57227771
122	345	3913	-43	-24	26	-5	7	97	662	49498	661	57227773
119	353	3913	-45	-24	28	-5	7	97	663	49597	662	57227775
126	349	3920	-43	-24	27	-5	3	101	664	49648	663	57227776
132	366	3908	-42	-25	29	-5	3	101	665	49747	664	57227795
132	348	3921	-40	-27	30	4	-2	96	666	49798	665	57227795
123	364	3909	-41	-22	27	4	-2	96	667	49897	666	57227798
122	354	3918	-39	-26	25	0	2	100	668	49948	667	57227800
129	352	3902	-42	-25	27	0	2	100	669	50047	668	57227800
123	351	3903	-42	-22	28	-2	10	90	670	50098	669	57227820
117	351	3922	-43	-24	26	-2	10	90	671	50197	670	57227820
117	366	3906	-40	-27	26	-1	3	99	672	50248	671	57227824
117	343	3901	-44	-25	30	-1	3	99	673	50347	672	57227826
127	340	3907	-41	-26	25	-1	13	99	674	50398	673	57227826
126	354	3923	-44	-26	28	-1	13	99	675	50497	674	57227845
120	358	3906	-41	-27	29	-4	2	96	676	50548	675	57227846
128	356	3886	-39	-23	28	-4	2	96	677	50647	676	57227848
126	350	3911	-44	-25	26	3	13	95	678	50698	677	57227850
116	348	3919	-43	-26	31	3	13	95	679	50797	678	57227851
125	352	3924	-42	-25	27	0	6	94	680	50848	679	57227870
129	356	3916	-44	-20	24	0	6	94	681	50947	680	57227871
128	347	3917	-42	-25	28	0	6	100	682	50998	681	57227873
133	340	3901	-40	-24	27	0	6	100	683	51097	682	57227876
133	353	3876	-39	-23	26	-7	11	97	684	51148	683	57227877
131	352	3917	-42	-24	29	-7	11	97	685	51247	684	57227895
126	359	3935	-40	-22	28	-1	1	99	686	51298	685	57227895
129	344	3901	-43	-26	27	-1	1	99	687	51397	686	57227898
130	345	3916	-43	-24	29	-1	9	97	688	51448	687	57227899
127	352	3915	-44	-24	26	-1	9	97	689	51547	688	57227899
136	354	3904	-39	-24	27	-1	9	89	690	51598	689	57227920
131	347	3925	-41	-24	28	-1	9	89	691	51697	690	57227920
118	362	3907	-42	-26	28	1	5	103	692	51748	691	57227924
114	347	3906	-44	-25	25	1	5	103	693	51847	692	57227925
119	346	3910	-41	-25	29	-1	5	95	694	51898	693	57227926
114	360	3899	-44	-26	28	-1	5	95	695	51997	694	57227945
129	372	3905	-42	-25	25	-1	3	101	696	52048	695	57227946
100	348	3880	-42	-25	24	-1	3	101	697	52147	696	57227949
127	349	3903	-43	-26	28	0	8	98	698	52198	697	57227949
125	351	3911	-43	-25	25	0	8	98	699	52297	698	57227951
125	344	3890	-43	-25	28	0	6	98	700	52348	699	57227973
134	350	3901	-43	-21	27	0	6	98	701	52447	700	57227973
112	371	3896	-43	-25	25	-2	6	102	702	52498	701	57227976
132	355	3894	-42	-26	30	-2	6	102	703	52597	702	57227977
123	353	3888	-42	-28	29	-5	5	97	704	52648	703	57227979
132	357	3891	-43	-24	25	-5	5	97	705	52747	704	57227994
111	348	3905	-43	-24	26	-1	5	95	706	52798	705	57227995
117	355	3918	-43	-24	30	-1	5	95	707	52897	706	57227997
118	343	3893	-43	-26	26	-4	10	100	708	52948	707	57227998
126	350	3890	-43	-29	31	-4	10	100	709	53047	708	57228000
141	359	3895	-44	-26	29	-3	5	95	710	53098	709	57228034
117	356	3913	-41	-22	27	-3	5	95	711	53197	710	57228034
128	362	3914	-40	-24	28	-1	5	93	712	53248	711	57228038
120	349	3906	-43	-24	28	-1	5	93	713	53347	712	57228038
135	346	3916	-41	-26	29	-5	9	99	714	53398	713	57228041
121	344	3927	-45	-23	24	-5	9	99	715	53497	714	57228042
131	338	3914	-41	-25	29	-4	6	92	716	53548	715	57228042
129	357	3894	-42	-26	24	-4	6	92	717	53647	716	57228045
139	344	3903	-41	-26	23	-2	6	98	718	53698	717	57228046
129	343	3916	-43	-22	24	-2	6	98	719	53797	718	57228059
117	346	3912	-41	-25	26	-3	5	97	720	53848	719	57228059
131	355	3926	-42	-27	27	-3	5	97	721	53947	720	57228061
121	342	3918	-41	-25	28	-1	11	99	722	53998	721	57228095
124	350	3890	-44	-24	26	-1	11	99	723	54097	722	57228101
126	366	3899	-42	-23	24	6	2	102	724	54148	723	57228102
125	341	3905	-43	-23	27	6	2	102	725	54247	724	57228103
128	349	3910	-41	-28	28	0	12	98	726	54298	725	57228105
121	353	3899	-43	-25	24	0	12	98	727	54397	726	57228105
138	346	3909	-40	-25	27	-2	6	94	728	54448	727	57228106
121	342	3913	-42	-23	27	-2	6	94	729	54547	728	57228107
121	349	3916	-42	-27	26	-3	9	95	730	54598	729	57228107
132	350	3926	-42	-24	26	-3	9	95	731	54697	730	57228110
129	351	3923	-40	-23	25	6	4	102	732	54748	731	57228125
116	361	3908	-45	-22	26	6	4	102	733	54847	732	57228126
123	359	3919	-46	-28	25	2	8	98	734	54898	733	57228130
112	357	3916	-42	-28	29	2	8	98	735	54997	734	57228130
131	351	3919	-42	-24	25	3	1	93	736	55048	735	57228134
140	373	3924	-46	-22	27	3	1	93	737	55147	736	57228154
124	340	3922	-40	-27	29	-2	8	98	738	55198	737	57228157
136	345	3914	-42	-28	25	-2	8	98	739	55297	738	57228158
127	346	3941	-40	-27	28	-4	8	96	740	55348	739	57228159
109	356	3924	-45	-23	29	-4	8	96	741	55447	740	57228159
126	353	3906	-40	-26	25	1	9	97	742	55498	741	57228178
126	342	3907	-42	-26	26	1	9	97	743	55597	742	57228178
116	349	3915	-37	-26	26	-1	9	95	744	55648	743	57228181
116	364	3899	-39	-24	24	-1	9	95	745	55747	744	57228182
118	349	3915	-41	-26	24	-1	7	93	746	55798	745	57228184
128	361	3910	-41	-27	29	-1	7	93	747	55897	746	57228202
135	363	3924	-41	-26	26	-2	6	94	748	55948	747	57228202
125	359	3896	-43	-22	25	-2	6	94	749	56047	748	57228205
118	358	3914	-43	-23	29	5	7	97	750	56098	749	57228206
122	348	3928	-45	-27	27	5	7	97	751	56197	750	57228251
136	343	3908	-43	-29	26	1	5	99	752	56248	751	57228252
123	354	3889	-41	-27	24	1	5	99	753	56347	752	57228254
136	357	3924	-41	-26	26	0	6	94	754	56398	753	57228255
123	360	3910	-43	-26	28	0	6	94	755	56497	754	57228255
150	364	3912	-40	-27	29	1	9	97	756	56548	755	57228259
140	353	3901	-40	-26	26	1	9	97	757	56647	756	57228259
135	344	3898	-39	-26	28	-1	9	97	758	56698	757	57228261
121	348	3910	-42	-24	28	-1	9	97	759	56797	758	57228280
130	361	3907	-40	-25	27	-1	1	99	760	56848	759	57228281
130	357	3909	-41	-27	24	-1	1	99	761	56947	760	57228282
131	356	3931	-42	-26	27	-2	6	100	762	56998	761	57228282
106	351	3902	-44	-27	26	-2	6	100	763	57097	762	57228284
128	356	3907	-41	-28	26	1	7	99	764	57148	763	57228285
125	349	3921	-44	-23	26	1	7	99	765	57247	764	57228285
122	346	3897	-42	-24	26	-3	11	99	766	57298	765	57228301
114	344	3913	-43	-25	26	-3	11	99	767	57397	766	57228302
139	358	3936	-40	-24	28	0	6	98	768	57448	767	57228304
125	340	3890	-40	-23	27	0	6	98	769	57547	768	57228305
121	349	3914	-42	-24	25	3	5	95	770	57598	769	57228305
129	336	3911	-40	-25	27	3	5	95	771	57697	770	57228325
129	349	3925	-41	-27	31	3	5	95	772	57748	771	57228325
146	349	3889	-42	-24	25	3	5	95	773	57847	772	57228327
128	346	3910	-42	-23	25	1	9	97	774	57898	773	57228329
138	364	3914	-43	-23	29	1	9	97	775	57997	774	57228329
130	355	3915	-42	-25	28	1	7	95	776	58048	775	57228350
120	361	3923	-43	-28	25	1	7	95	777	58147	776	57228351
144	361	3918	-42	-28	26	2	8	100	778	58198	777	57228352
124	344	3919	-42	-25	26	2	8	100	779	58297	778	57228355
129	354	3913	-40	-27	28	4	8	100	780	58348	779	57228355
124	356	3918	-43	-26	30	4	8	100	781	58447	780	57228377
127	340	3890	-40	-29	26	-3	5	95	782	58498	781	57228379
131	339	3901	-41	-24	26	-3	5	95	783	58597	782	57228381
133	360	3906	-40	-21	27	-3	5	95	784	58648	783	57228382
121	353	3917	-43	-23	25	-3	5	95	785	58747	784	57228384
131	371	3927	-42	-27	25	-5	9	95	786	58798	785	57228400
119	355	3911	-43	-26	26	-5	9	95	787	58896	786	57228401
131	360	3890	-40	-24	25	5	9	101	788	58947	787	57228404
133	349	3902	-41	-24	24	5	9	101	789	59046	788	57228405
138	345	3900	-40	-30	30	-1	7	97	790	59097	789	57228406
114	366	3927	-41	-26	27	-1	7	97	791	59196	790	57228425
140	348	3900	-41	-22	25	-6	4	102	792	59247	791	57228434
120	341	3914	-43	-22	28	-6	4	102	793	59346	792	57228437
129	351	3913	-41	-26	28	-1	3	97	794	59397	793	57228438
119	364	3922	-41	-29	27	-1	3	97	795	59495	794	57228441
131	352	3917	-44	-21	27	-1	7	93	796	59547	795	57228450
120	332	3912	-43	-22	27	-1	7	93	797	59645	796	57228450
136	351	3883	-40	-24	23	2	6	104	798	59697	797	57228454
130	355	3872	-41	-24	28	2	6	104	799	59796	798	57228455
117	344	3909	-41	-26	27	-2	8	94	800	59847	799	57228456
129	361	3907	-44	-25	27	-2	8	94	801	59945	800	57228476
130	355	3895	-43	-26	27	-1	5	97	802	59996	801	57228499
132	352	3920	-44	-29	28	-1	5	97	803	60095	802	57228508
130	353	3910	-44	-25	27	0	4	100	804	60146	803	57228516
134	349	3894	-45	-20	27	0	4	100	805	60245	804	57228522
129	349	3904	-40	-28	26	2	2	98	806	60296	805	57228529
129	346	3899	-43	-30	27	2	2	98	807	60395	806	57228532
128	351	3913	-41	-24	28	-2	4	104	808	60446	807	57228532
133	364	3896	-40	-23	28	-2	4	104	809	60545	808	57228549
135	351	3897	-40	-27	27	0	10	98	810	60596	809	57228576
123	355	3918	-43	-29	30	0	10	98	811	60695	810	57228578
133	369	3908	-41	-27	30	4	8	96	812	60746	811	57228582
111	363	3905	-43	-24	28	4	8	96	813	60845	812	57228582
122	354	3933	-40	-27	29	0	6	100	814	60896	813	57228585
126	349	3915	-43	-27	29	0	6	100	815	60995	814	57228586
133	341	3931	-40	-24	28	-3	3	99	816	61046	815	57228586
108	351	3921	-41	-21	27	-3	3	99	817	61145	816	57228587
131	359	3906	-42	-25	29	-2	6	100	818	61196	817	57228588
122	345	3906	-44	-27	24	-2	6	100	819	61295	818	57228590
124	364	3918	-43	-26	24	-1	5	97	820	61346	819	57228592
126	352	3943	-45	-22	29	-1	5	97	821	61445	820	57228592
132	343	3926	-42	-24	26	0	4	94	822	61496	821	57228595
130	338	3903	-41	-27	26	0	4	94	823	61595	822	57228595
124	354	3901	-39	-26	27	-5	9	97	824	61646	823	57228597
115	352	3924	-42	-24	27	-5	9	97	825	61745	824	57228628
128	356	3917	-43	-22	26	-2	8	100	826	61796	825	57228630
120	358	3915	-41	-25	26	-2	8	100	827	61895	826	57228634
134	361	3936	-40	-27	27	-3	1	97	828	61946	827	57228634
134	363	3906	-41	-26	27	-3	1	97	829	62045	828	57228638
135	356	3915	-43	-21	29	-4	6	96	830	62096	829	57228639
133	359	3894	-45	-21	29	-4	6	96	831	62195	830	57228643
122	358	3910	-42	-28	26	-1	9	97	832	62246	831	57228644
110	374	3902	-39	-26	30	-1	9	97	833	62345	832	57228647
139	365	3912	-42	-23	29	-4	4	100	834	62396	833	57228647
129	369	3912	-42	-22	27	-4	4	100	835	62495	834	57228648
136	357	3918	-43	-26	28	-3	3	93	836	62545	835	57228648
117	358	3915	-45	-25	31	-3	3	93	837	62644	836	57228650
128	357	3896	-43	-28	26	2	2	102	838	62695	837	57228651
134	370	3924	-44	-24	27	2	2	102	839	62794	838	57228652
119	346	3906	-43	-23	28	-2	10	94	840	62845	839	57228656
116	346	3900	-44	-24	28	-2	10	94	841	62944	840	57228657
126	350	3907	-40	-29	29	1	9	95	842	62995	841	57228659
137	364	3918	-41	-24	29	1	9	95	843	63093	842	57228675
122	347	3913	-41	-24	26	5	7	103	844	63145	843	57228687
127	351	3902	-41	-21	27	5	7	103	845	63243	844	57228689
134	356	3898	-41	-28	28	1	3	99	846	63294	845	57228692
120	361	3922	-41	-29	26	1	3	99	847	63393	846	57228700
130	344	3920	-42	-24	26	1	1	99	848	63444	847	57228700
130	364	3905	-43	-22	29	1	1	99	849	63543	848	57228703
108	368	3913	-40	-26	26	-6	8	98	850	63594	849	57228708
136	376	3900	-41	-26	25	-6	8	98	851	63693	850	57228708
112	357	3906	-41	-28	28	-4	6	94	852	63744	851	57228725
117	358	3906	-43	-23	25	-4	6	94	853	63843	852	57228726
119	356	3915	-41	-24	25	2	4	100	854	63894	853	57228732
116	357	3909	-41	-23	29	2	4	100	855	63993	854	57228733
129	364	3928	-42	-25	26	1	9	95	856	64044	855	57228736
142	360	3892	-44	-23	26	1	9	95	857	64143	856	57228750
113	353	3905	-43	-28	30	-3	1	99	858	64194	857	57228751
121	348	3910	-42	-25	27	-3	1	99	859	64293	858	57228753
139	357	3913	-41	-25	26	-4	4	100	860	64344	859	57228756
123	360	3899	-45	-25	27	-4	4	100	861	64443	860	57228756
113	348	3922	-41	-28	28	-5	9	91	862	64494	861	57228775
112	350	3917	-43	-26	27	-5	9	91	863	64592	862	57228776
127	352	3909	-43	-26	27	-2	8	100	864	64644	863	57228778
130	346	3919	-41	-27	26	-2	8	100	865	64743	864	57228780
130	361	3897	-41	-23	25	4	0	100	866	64794	865	57228781
110	364	3911	-42	-23	27	4	0	100	867	64893	866	57228800
122	361	3909	-41	-25	28	-2	2	100	868	64944	867	57228800
121	355	3915	-42	-21	25	-2	2	100	869	65043	868	57228803
136	323	3926	-39	-27	27	-2	8	94	870	65094	869	57228805
131	349	3915	-43	-26	28	-2	8	94	871	65193	870	57228806
130	373	3920	-42	-23	26	4	8	102	872	65244	871	57228825
129	348	3915	-44	-24	28	4	8	102	873	65343	872	57228826
143	369	3895	-42	-26	27	4	8	100	874	65394	873	57228830
119	367	3904	-43	-25	27	4	8	100	875	65493	874	57228831
120	365	3900	-39	-28	25	-5	7	97	876	65544	875	57228831
131	366	3918	-42	-25	30	-5	7	97	877	65643	876	57228850
140	339	3903	-42	-25	24	-2	-2	98	878	65694	877	57228850
123	345	3904	-42	-24	26	-2	-2	98	879	65793	878	57228854
135	360	3910	-43	-24	29	4	4	102	880	65844	879	57228854
127	359	3890	-42	-26	27	4	4	102	881	65942	880	57228856
133	343	3918	-42	-25	26	-2	6	92	882	65994	881	57228902
128	346	3899	-41	-22	28	-2	6	92	883	66093	882	57228902
121	363	3901	-40	-23	26	-1	5	95	884	66144	883	57228906
117	354	3907	-43	-23	28	-1	5	95	885	66242	884	57228908
122	354	3908	-41	-24	27	-3	5	97	886	66293	885	57228909
135	351	3898	-40	-27	30	-3	5	97	887	66392	886	57228909
118	360	3879	-42	-24	27	-5	3	91	888	66443	887	57228909
132	354	3907	-43	-23	28	-5	3	91	889	66542	888	57228926
108	342	3915	-41	-25	27	0	6	94	890	66593	889	57228927
129	342	3913	-41	-24	28	0	6	94	891	66692	890	57228929
120	351	3902	-39	-23	27	-10	10	94	892	66743	891	57228930
125	356	3911	-41	-22	26	-10	10	94	893	66842	892	57228930
141	350	3911	-41	-26	28	-4	6	100	894	66893	893	57228934
130	350	3886	-41	-29	28	-4	6	100	895	66991	894	57228935
134	364	3913	-39	-25	27	-5	13	99	896	67043	895	57228936
130	347	3910	-42	-25	25	-5	13	99	897	67142	896	57228950
119	359	3913	-42	-25	27	-1	3	97	898	67192	897	57228950
112	358	3902	-46	-26	27	-1	3	97	899	67291	898	57228955
124	330	3901	-42	-25	26	-3	5	103	900	67342	899	57228955
123	351	3896	-43	-25	30	-3	5	103	901	67441	900	57228957
128	365	3904	-42	-25	28	3	1	101	902	67492	901	57228978
102	357	3918	-41	-28	26	3	1	101	903	67591	902	57228978
120	343	3916	-39	-25	27	1	5	107	904	67642	903	57228981
122	361	3927	-41	-23	28	1	5	107	905	67741	904	57228982
122	358	3904	-41	-23	27	0	6	96	906	67792	905	57228984
121	345	3909	-43	-23	27	0	6	96	907	67891	906	57228986
146	357	3928	-41	-27	25	-1	7	95	908	67942	907	57228987
116	369	3910	-42	-27	26	-1	7	95	909	68041	908	57229005
131	349	3911	-42	-24	27	-2	10	98	910	68092	909	57229006
122	358	3921	-41	-22	29	-2	10	98	911	68190	910	57229011
122	359	3918	-40	-27	26	0	6	96	912	68242	911	57229017
114	367	3888	-42	-26	27	0	6	96	913	68341	912	57229027
121	352	3907	-43	-26	27	-1	9	99	914	68392	913	57229028
134	337	3913	-45	-25	25	-1	9	99	915	68491	914	57229028
108	372	3901	-41	-26	28	-1	7	97	916	68542	915	57229036
133	351	3929	-40	-28	30	-1	7	97	917	68641	916	57229037
129	352	3902	-42	-26	25	0	2	98	918	68692	917	57229050
133	350	3917	-42	-23	28	0	2	98	919	68791	918	57229051
136	350	3916	-43	-24	29	-2	2	100	920	68842	919	57229051
102	358	3916	-41	-24	26	-2	2	100	921	68941	920	57229062
129	368	3923	-41	-25	28	-2	6	98	922	68992	921	57229062
127	356	3913	-41	-25	28	-2	6	98	923	69091	922	57229076
126	351	3914	-42	-25	25	-1	7	103	924	69142	923	57229077
130	344	3936	-46	-21	27	-1	7	103	925	69241	924	57229078
117	359	3909	-45	-23	28	-2	10	96	926	69292	925	57229087
121	355	3903	-46	-28	26	-2	10	96	927	69391	926	57229087
139	352	3903	-40	-29	24	-2	0	100	928	69442	927	57229089
124	356	3906	-41	-23	28	-2	0	100	929	69541	928	57229101
130	356	3905	-39	-24	28	1	5	95	930	69592	929	57229101
128	356	3901	-42	-26	26	1	5	95	931	69691	930	57229110
123	356	3913	-42	-27	27	-3	3	97	932	69742	931	57229111
133	356	3906	-44	-22	26	-3	3	97	933	69841	932	57229125
125	338	3890	-41	-23	26	-1	7	97	934	69892	933	57229126
136	350	3892	-44	-25	29	-1	7	97	935	69991	934	57229127
129	341	3900	-42	-26	27	3	7	97	936	70042	935	57229135
133	344	3910	-41	-25	25	3	7	97	937	70141	936	57229135
121	365	3909	-41	-25	27	0	8	96	938	70192	937	57229138
136	350	3910	-42	-24	25	0	8	96	939	70290	938	57229150
113	360	3920	-42	-25	25	2	8	94	940	70341	939	57229160
131	377	3911	-43	-25	28	2	8	94	941	70440	940	57229165
121	333	3916	-38	-23	28	5	3	97	942	70491	941	57229166
144	357	3908	-41	-23	25	5	3	97	943	70589	942	57229175
129	343	3891	-39	-23	27	5	5	101	944	70640	943	57229176
125	348	3894	-43	-25	27	5	5	101	945	70738	944	57229178
130	348	3922	-41	-28	25	0	2	96	946	70789	945	57229185
113	357	3897	-39	-24	27	0	2	96	947	70887	946	57229186
116	361	3944	-43	-23	29	-1	7	99	948	70938	947	57229200
118	337	3919	-45	-28	26	-1	7	99	949	71037	948	57229201
118	355	3909	-42	-27	25	1	5	99	950	71088	949	57229203
112	349	3898	-46	-23	30	1	5	99	951	71187	950	57229209
132	352	3916	-45	-25	26	0	4	98	952	71238	951	57229229
124	360	3897	-43	-26	26	0	4	98	953	71337	952	57229232
136	357	3918	-41	-24	30	2	2	96	954	71388	953	57229232
117	360	3913	-42	-23	27	2	2	96	955	71487	954	57229233
136	357	3891	-44	-25	26	-3	9	93	956	71538	955	57229234
102	354	3918	-43	-23	28	-3	9	93	957	71637	956	57229235
120	345	3891	-41	-25	28	-2	8	96	958	71688	957	57229250
118	364	3897	-43	-24	27	-2	8	96	959	71787	958	57229252
115	351	3915	-43	-22	28	-1	5	95	960	71838	959	57229253
128	350	3911	-42	-22	26	-1	5	95	961	71936	960	57229259
137	350	3930	-40	-26	26	-4	6	92	962	71987	961	57229259
116	350	3916	-43	-24	30	-4	6	92	963	72085	962	57229275
125	345	3932	-41	-25	28	3	7	101	964	72137	963	57229277
128	353	3911	-43	-26	27	3	7	101	965	72236	964	57229278
130	354	3938	-43	-27	29	6	10	94	966	72287	965	57229285
116	360	3917	-41	-22	29	6	10	94	967	72386	966	57229294
109	340	3900	-39	-26	24	-2	6	96	968	72437	967	57229300
128	368	3905	-43	-28	27	-2	6	96	969	72536	968	57229301
125	368	3914	-38	-25	26	-3	5	99	970	72587	969	57229305
122	367	3901	-40	-25	22	-3	5	99	971	72686	970	57229305
136	369	3910	-42	-28	27	-7	11	97	972	72737	971	57229305
128	354	3904	-42	-27	26	-7	11	97	973	72836	972	57229325
134	364	3891	-43	-23	22	2	8	104	974	72887	973	57229325
143	344	3911	-44	-23	26	2	8	104	975	72986	974	57229329
112	347	3917	-40	-28	27	1	9	97	976	73037	975	57229330
124	347	3922	-42	-27	26	1	9	97	977	73136	976	57229333
117	361	3930	-39	-26	27	-1	3	97	978	73187	977	57229354
122	361	3926	-43	-24	28	-1	3	97	979	73286	978	57229359
136	358	3917	-39	-26	25	-6	6	102	980	73337	979	57229359
132	353	3924	-42	-27	28	-6	6	102	981	73436	980	57229361
130	350	3908	-41	-27	31	1	7	87	982	73487	981	57229362
126	354	3896	-40	-25	27	1	7	87	983	73585	982	57229374
120	344	3911	-40	-22	28	0	4	102	984	73637	983	57229374
115	347	3910	-44	-26	29	0	4	102	985	73736	984	57229377
122	346	3914	-43	-30	27	1	3	97	986	73787	985	57229378
139	359	3903	-43	-27	25	1	3	97	987	73886	986	57229384
145	352	3879	-41	-22	26	-8	2	102	988	73937	987	57229419
140	350	3889	-45	-24	25	-8	2	102	989	74036	988	57229419
119	352	3919	-41	-28	25	-2	4	102	990	74087	989	57229423
127	359	3906	-43	-24	29	-2	4	102	991	74186	990	57229426
133	362	3939	-41	-24	27	-3	9	93	992	74236	991	57229429
127	360	3894	-42	-23	28	-3	9	93	993	74335	992	57229429
134	379	3911	-42	-27	30	-3	3	91	994	74386	993	57229430
125	352	3907	-43	-26	27	-3	3	91	995	74484	994	57229431
113	347	3916	-43	-27	24	2	8	94	996	74536	995	57229431
134	368	3890	-44	-25	28	2	8	94	997	74634	996	57229432
125	347	3913	-41	-24	27	-2	4	96	998	74685	997	57229444
137	373	3889	-42	-26	26	-2	4	96	999	74784	998	57229444
140	358	3909	-43	-25	30	-3	7	97	1000	74835	999	57229454
137	357	3881	-44	-25	28	-3	7	97	1001	74934	1000	57229454
131	340	3889	-42	-26	26	-1	5	99	1002	74985	1001	57229469
124	354	3915	-44	-27	28	-1	5	99	1003	75084	1002	57229470
108	335	3901	-42	-25	30	-3	5	97	1004	75135	1003	57229471
115	357	3912	-42	-24	27	-3	5	97	1005	75233	1004	57229479
132	359	3892	-44	-26	28	-2	8	96	1006	75284	1005	57229479
137	354	3913	-40	-24	28	-2	8	96	1007	75383	1006	57229495
140	359	3948	-40	-26	27	-4	6	100	1008	75434	1007	57229495
129	349	3895	-42	-29	29	-4	6	100	1009	75532	1008	57229497
145	360	3909	-41	-26	27	4	2	94	1010	75583	1009	57229504
134	355	3916	-44	-25	24	4	2	94	1011	75682	1010	57229505
136	348	3888	-44	-28	27	-4	8	96	1012	75733	1011	57229546
137	342	3912	-44	-24	27	-4	8	96	1013	75832	1012	57229546
124	358	3925	-41	-27	26	-8	10	92	1014	75883	1013	57229548
121	356	3914	-42	-25	26	-8	10	92	1015	75981	1014	57229549
129	355	3929	-42	-26	30	-3	9	89	1016	76032	1015	57229550
120	349	3901	-42	-25	28	-3	9	89	1017	76130	1016	57229553
118	350	3915	-43	-28	28	-1	5	95	1018	76181	1017	57229556
124	361	3905	-42	-27	28	-1	5	95	1019	76280	1018	57229558
134	363	3928	-43	-26	27	2	4	92	1020	76330	1019	57229570
124	351	3923	-41	-28	24	2	4	92	1021	76428	1020	57229571
132	358	3937	-41	-27	30	3	5	99	1022	76479	1021	57229575
136	354	3901	-41	-25	26	3	5	99	1023	76578	1022	57229577
120	332	3909	-41	-26	26	-3	7	101	1024	76629	1023	57229577
137	349	3926	-45	-23	30	-3	7	101	1025	76728	1024	57229578
128	350	3907	-42	-24	24	2	6	98	1026	76779	1025	57229578
124	365	3915	-43	-23	25	2	6	98	1027	76877	1026	57229594
121	344	3904	-42	-22	30	-5	3	97	1028	76928	1027	57229594
143	358	3900	-44	-25	28	-5	3	97	1029	77026	1028	57229596
132	349	3914	-43	-27	28	-2	0	100	1030	77077	1029	57229603
125	366	3889	-42	-26	30	-2	0	100	1031	77175	1030	57229603
130	343	3893	-40	-26	28	-6	6	96	1032	77226	1031	57229620
120	359	3922	-43	-23	26	-6	6	96	1033	77324	1032	57229621
133	340	3916	-41	-24	29	3	7	103	1034	77375	1033	57229625
127	352	3897	-40	-27	27	3	7	103	1035	77474	1034	57229627
131	350	3911	-42	-26	25	-3	5	95	1036	77525	1035	57229629
133	355	3907	-43	-24	29	-3	5	95	1037	77624	1036	57229645
119	359	3920	-43	-26	28	-1	5	99	1038	77675	1037	57229645
144	356	3911	-42	-28	28	-1	5	99	1039	77774	1038	57229649
135	353	3911	-40	-27	27	1	7	99	1040	77825	1039	57229649
122	349	3902	-40	-26	27	1	7	99	1041	77923	1040	57229654
126	343	3906	-43	-26	24	3	5	97	1042	77974	1041	57229669
132	351	3915	-42	-27	29	3	5	97	1043	78073	1042	57229672
133	376	3912	-41	-26	28	6	4	102	1044	78124	1043	57229676
126	355	3919	-43	-22	26	6	4	102	1045	78223	1044	57229677
122	359	3914	-42	-23	28	1	9	101	1046	78274	1045	57229678
134	359	3930	-42	-27	29	1	9	101	1047	78373	1046	57229695
122	353	3924	-40	-25	23	-4	2	100	1048	78424	1047	57229696
141	340	3914	-41	-25	26	-4	2	100	1049	78522	1048	57229698
122	349	3902	-41	-26	26	-5	9	95	1050	78574	1049	57229698
121	363	3908	-42	-26	27	-5	9	95	1051	78673	1050	57229701
117	365	3913	-42	-27	29	-1	7	95	1052	78724	1051	57229721
125	361	3923	-41	-22	29	-1	7	95	1053	78823	1052	57229722
110	357	3937	-43	-22	25	-7	5	99	1054	78874	1053	57229726
127	349	3927	-46	-24	27	-7	5	99	1055	78973	1054	57229727
126	341	3935	-43	-26	28	-2	4	96	1056	79024	1055	57229730
111	353	3917	-44	-23	24	-2	4	96	1057	79122	1056	57229746
138	351	3932	-40	-25	25	-1	5	101	1058	79173	1057	57229747
113	371	3917	-39	-22	27	-1	5	101	1059	79271	1058	57229749
119	341	3935	-39	-25	26	-3	7	93	1060	79322	1059	57229749
124	356	3912	-40	-24	28	-3	7	93	1061	79420	1060	57229751
134	353	3916	-39	-23	28	2	4	100	1062	79471	1061	57229769
122	366	3913	-41	-25	27	2	4	100	1063	79570	1062	57229769
132	354	3894	-40	-25	24	3	7	101	1064	79621	1063	57229773
137	363	3904	-41	-24	29	3	7	101	1065	79720	1064	57229773
122	363	3917	-38	-24	28	-2	4	98	1066	79771	1065	57229794
117	367	3932	-42	-24	25	-2	4	98	1067	79870	1066	57229794
121	354	3921	-43	-26	27	-7	7	97	1068	79920	1067	57229796
104	358	3921	-44	-23	28	-7	7	97	1069	80019	1068	57229798
131	342	3894	-43	-22	27	-1	7	99	1070	80070	1069	57229798
130	358	3929	-45	-24	30	-1	7	99	1071	80169	1070	57229819
129	330	3910	-41	-29	27	2	4	100	1072	80220	1071	57229819
131	343	3897	-41	-26	24	2	4	100	1073	80319	1072	57229821
125	357	3894	-41	-20	27	1	1	95	1074	80370	1073	57229824
126	360	3930	-41	-25	28	1	1	95	1075	80469	1074	57229825
136	361	3933	-41	-29	24	-1	7	95	1076	80520	1075	57229844
133	363	3901	-40	-27	26	-1	7	95	1077	80619	1076	57229844
115	360	3903	-43	-17	26	-3	7	97	1078	80670	1077	57229846
125	375	3876	-45	-21	25	-3	7	97	1079	80769	1078	57229847
147	375	3900	-45	-30	28	0	10	94	1080	80820	1079	57229848
145	342	3893	-46	-30	29	0	10	94	1081	80919	1080	57229869
116	345	3922	-43	-24	27	1	7	97	1082	80970	1081	57229869
125	353	3898	-41	-22	27	1	7	97	1083	81069	1082	57229871
116	340	3924	-41	-27	29	1	-3	99	1084	81120	1083	57229873
123	343	3906	-43	-30	25	1	-3	99	1085	81218	1084	57229873
118	359	3916	-41	-23	28	-5	7	97	1086	81269	1085	57229895
126	352	3886	-43	-20	29	-5	7	97	1087	81367	1086	57229895
120	368	3915	-40	-26	25	-5	3	95	1088	81418	1087	57229896
137	379	3903	-41	-29	26	-5	3	95	1089	81517	1088	57229898
128	365	3924	-44	-24	30	0	12	94	1090	81568	1089	57229899
120	362	3908	-45	-21	26	0	12	94	1091	81667	1090	57229919
115	361	3895	-44	-28	27	-5	5	95	1092	81718	1091	57229919
123	356	3912	-44	-28	29	-5	5	95	1093	81817	1092	57229921
123	344	3910	-41	-27	26	3	5	103	1094	81868	1093	57229923
123	362	3901	-42	-22	25	3	5	103	1095	81966	1094	57229923
120	343	3896	-41	-25	29	-2	6	92	1096	82017	1095	57229945
121	358	3902	-41	-28	28	-2	6	92	1097	82116	1096	57229945
110	349	3896	-41	-27	28	0	6	98	1098	82167	1097	57229948
127	365	3883	-43	-23	30	0	6	98	1099	82266	1098	57229948
122	358	3910	-44	-24	27	-2	6	96	1100	82317	1099	57229950
131	347	3891	-42	-28	27	-2	6	96	1101	82416	1100	57229971
132	352	3913	-40	-31	29	-3	3	97	1102	82467	1101	57229971
124	344	3895	-40	-23	28	-3	3	97	1103	82565	1102	57229976
122	363	3921	-41	-23	26	0	0	102	1104	82616	1103	57229978
126	352	3896	-42	-27	28	0	0	102	1105	82715	1104	57229979
129	343	3906	-43	-28	27	2	6	102	1106	82765	1105	57229995
135	355	3916	-42	-23	25	2	6	102	1107	82864	1106	57229996
136	368	3891	-43	-20	29	3	9	101	1108	82915	1107	57230000
126	359	3932	-42	-25	29	3	9	101	1109	83013	1108	57230000
128	364	3914	-42	-25	26	0	6	98	1110	83065	1109	57230003
104	361	3901	-41	-25	25	0	6	98	1111	83163	1110	57230004
108	343	3915	-40	-26	27	-1	11	93	1112	83214	1111	57230004
125	343	3897	-43	-25	26	-1	11	93	1113	83312	1112	57230022
124	345	3924	-42	-25	29	-2	6	98	1114	83363	1113	57230022
126	371	3916	-42	-25	28	-2	6	98	1115	83462	1114	57230026
127	363	3904	-41	-27	25	3	5	99	1116	83513	1115	57230030
123	363	3912	-43	-24	25	3	5	99	1117	83612	1116	57230031
112	349	3927	-40	-24	28	-6	10	98	1118	83663	1117	57230044
108	354	3921	-44	-25	26	-6	10	98	1119	83761	1118	57230045
113	357	3934	-41	-25	28	0	4	100	1120	83812	1119	57230046
132	346	3912	-44	-22	30	0	4	100	1121	83911	1120	57230069
141	356	3907	-40	-25	24	-3	7	93	1122	83961	1121	57230069
123	368	3898	-42	-23	27	-3	7	93	1123	84060	1122	57230074
139	370	3890	-39	-26	29	-1	1	101	1124	84111	1123	57230075
124	349	3916	-43	-24	27	-1	1	101	1125	84209	1124	57230076
121	364	3916	-42	-28	27	-4	8	96	1126	84260	1125	57230077
124	363	3926	-43	-26	27	-4	8	96	1127	84359	1126	57230078
130	349	3897	-42	-24	26	0	4	96	1128	84410	1127	57230094
123	354	3901	-45	-25	27	0	4	96	1129	84508	1128	57230105
117	359	3907	-45	-29	30	-1	5	101	1130	84559	1129	57230105
142	357	3916	-44	-25	25	-1	5	101	1131	84658	1130	57230105
127	359	3897	-40	-24	25	1	11	95	1132	84709	1131	57230106
130	363	3900	-41	-22	30	1	11	95	1133	84808	1132	57230119
127	353	3939	-41	-22	28	1	7	97	1134	84858	1133	57230119
121	359	3901	-44	-23	27	1	7	97	1135	84957	1134	57230126
123	347	3908	-40	-26	30	2	4	98	1136	85007	1135	57230126
113	354	3899	-40	-25	26	2	4	98	1137	85106	1136	57230130
126	356	3913	-42	-23	26	-1	3	101	1138	85157	1137	57230145
118	358	3884	-45	-25	29	-1	3	101	1139	85256	1138	57230146
135	344	3920	-42	-28	28	-1	9	95	1140	85307	1139	57230173
135	359	3899	-43	-25	25	-1	9	95	1141	85405	1140	57230173
138	354	3915	-40	-25	27	-6	8	94	1142	85456	1141	57230175
118	354	3892	-42	-21	27	-6	8	94	1143	85555	1142	57230177
122	347	3907	-41	-27	25	-1	5	95	1144	85606	1143	57230177
129	353	3925	-44	-25	28	-1	5	95	1145	85704	1144	57230180
126	352	3934	-43	-23	29	0	6	94	1146	85755	1145	57230180
127	352	3907	-41	-26	27	0	6	94	1147	85854	1146	57230183
122	366	3899	-41	-24	28	-2	2	98	1148	85905	1147	57230195
130	349	3900	-40	-26	28	-2	2	98	1149	86003	1148	57230195
133	356	3899	-43	-27	26	-3	9	99	1150	86055	1149	57230199
114	355	3908	-43	-22	28	-3	9	99	1151	86154	1150	57230199
110	343	3925	-44	-24	28	-1	5	97	1152	86205	1151	57230203
134	353	3899	-40	-27	24	-1	5	97	1153	86304	1152	57230219
136	340	3901	-42	-30	27	-3	3	99	1154	86355	1153	57230219
143	352	3898	-44	-25	28	-3	3	99	1155	86453	1154	57230226
127	362	3905	-42	-23	29	1	7	93	1156	86504	1155	57230227
110	337	3904	-41	-25	28	1	7	93	1157	86603	1156	57230244
128	354	3904	-42	-24	26	-3	3	103	1158	86654	1157	57230244
126	355	3915	-44	-24	25	-3	3	103	1159	86753	1158	57230244
114	358	3898	-40	-24	27	3	5	101	1160	86804	1159	57230249
146	352	3912	-45	-24	27	3	5	101	1161	86903	1160	57230249
121	358	3913	-40	-24	26	3	3	91	1162	86954	1161	57230269
135	347	3903	-42	-26	27	3	3	91	1163	87053	1162	57230269
133	359	3910	-43	-27	29	2	2	100	1164	87104	1163	57230271
137	348	3905	-43	-21	27	2	2	100	1165	87203	1164	57230275
119	353	3884	-40	-24	27	-1	7	99	1166	87254	1165	57230275
142	353	3934	-44	-28	29	-1	7	99	1167	87353	1166	57230294
134	339	3914	-41	-28	28	4	0	98	1168	87403	1167	57230294
138	359	3917	-43	-25	28	4	0	98	1169	87502	1168	57230297
145	358	3916	-42	-23	29	-3	9	95	1170	87553	1169	57230298
119	342	3929	-43	-24	28	-3	9	95	1171	87652	1170	57230298
149	371	3916	-41	-28	27	1	3	99	1172	87703	1171	57230322
140	343	3912	-41	-27	27	1	3	99	1173	87802	1172	57230326
126	357	3932	-39	-25	27	-1	11	97	1174	87853	1173	57230326
114	369	3900	-41	-22	27	-1	11	97	1175	87952	1174	57230326
133	354	3923	-40	-25	30	3	5	95	1176	88003	1175	57230327
137	350	3913	-43	-30	28	3	5	95	1177	88102	1176	57230343
124	336	3918	-43	-25	27	2	0	96	1178	88153	1177	57230343
130	349	3902	-41	-22	29	2	0	96	1179	88252	1178	57230345
129	356	3912	-41	-23	27	-8	2	98	1180	88303	1179	57230348
133	354	3926	-44	-28	25	-8	2	98	1181	88402	1180	57230348
138	355	3926	-42	-27	27	3	7	95	1182	88453	1181	57230384
137	360	3907	-41	-22	27	3	7	95	1183	88552	1182	57230384
128	349	3914	-44	-25	23	-1	7	101	1184	88603	1183	57230386
121	353	3904	-42	-27	26	-1	7	101	1185	88702	1184	57230387
121	354	3921	-42	-25	27	-3	7	97	1186	88753	1185	57230388
120	342	3886	-41	-22	24	-3	7	97	1187	88852	1186	57230391
128	350	3913	-41	-25	26	-2	10	102	1188	88903	1187	57230391
132	362	3905	-45	-24	28	-2	10	102	1189	89001	1188	57230395
120	353	3916	-44	-25	27	4	6	96	1190	89052	1189	57230395
137	347	3929	-44	-26	29	4	6	96	1191	89151	1190	57230409
131	358	3910	-42	-25	29	4	2	100	1192	89202	1191	57230413
125	347	3903	-40	-26	25	4	2	100	1193	89301	1192	57230416
113	352	3899	-42	-27	26	0	10	94	1194	89352	1193	57230420
140	351	3904	-40	-24	29	0	10	94	1195	89451	1194	57230420
137	351	3928	-44	-24	25	-6	8	96	1196	89502	1195	57230423
121	357	3912	-40	-23	28	-6	8	96	1197	89601	1196	57230434
118	354	3900	-42	-26	31	1	9	97	1198	89652	1197	57230435
139	367	3909	-42	-26	27	1	9	97	1199	89751	1198	57230444
123	357	3920	-42	-25	26	3	7	95	1200	89802	1199	57230445
122	340	3894	-43	-23	27	3	7	95	1201	89901	1200	57230459
119	350	3927	-42	-28	28	-1	3	101	1202	89952	1201	57230460
119	362	3928	-44	-26	26	-1	3	101	1203	90050	1202	57230460
103	356	3899	-42	-25	30	-1	11	97	1204	90102	1203	57230470
137	356	3893	-44	-22	27	-1	11	97	1205	90200	1204	57230471
140	343	3903	-44	-25	28	-3	9	97	1206	90251	1205	57230473
121	346	3891	-43	-25	31	-3	9	97	1207	90350	1206	57230485
129	346	3906	-42	-25	28	1	3	99	1208	90401	1207	57230485
129	373	3906	-43	-22	26	1	3	99	1209	90500	1208	57230495
136	361	3914	-44	-26	31	0	6	100	1210	90551	1209	57230496
124	356	3895	-44	-27	29	0	6	100	1211	90650	1210	57230509
119	345	3891	-44	-27	27	0	4	92	1212	90701	1211	57230513
137	345	3892	-44	-24	25	0	4	92	1213	90799	1212	57230513
114	368	3907	-39	-24	27	2	8	94	1214	90850	1213	57230518
122	360	3909	-40	-25	28	2	8	94	1215	90949	1214	57230518
126	354	3912	-41	-28	27	-2	4	102	1216	91000	1215	57230534
121	359	3922	-41	-29	28	-2	4	102	1217	91098	1216	57230535
136	362	3913	-42	-23	25	-1	7	105	1218	91150	1217	57230535
120	341	3930	-44	-22	29	-1	7	105	1219	91248	1218	57230544
124	344	3908	-42	-26	27	0	6	94	1220	91299	1219	57230545
130	351	3877	-42	-29	26	0	6	94	1221	91398	1220	57230559
148	359	3917	-39	-26	28	1	1	101	1222	91449	1221	57230559
127	360	3904	-42	-24	30	1	1	101	1223	91547	1222	57230561
118	377	3906	-42	-26	27	1	9	103	1224	91599	1223	57230569
121	364	3916	-45	-24	28	1	9	103	1225	91697	1224	57230569
127	362	3919	-45	-27	28	-5	9	97	1226	91748	1225	57230584
135	356	3904	-42	-28	26	-5	9	97	1227	91847	1226	57230584
127	357	3911	-40	-25	25	1	5	103	1228	91898	1227	57230586
130	347	3906	-43	-24	29	1	5	103	1229	91997	1228	57230592
126	351	3914	-41	-25	25	-2	8	96	1230	92048	1229	57230593
131	368	3908	-44	-25	27	-2	8	96	1231	92146	1230	57230609
129	350	3914	-41	-23	27	2	6	98	1232	92197	1231	57230609
132	363	3921	-42	-23	27	2	6	98	1233	92296	1232	57230611
119	355	3912	-39	-28	28	-2	8	102	1234	92346	1233	57230618
120	353	3920	-41	-28	29	-2	8	102	1235	92445	1234	57230618
118	367	3909	-40	-25	24	0	8	98	1236	92495	1235	57230635
110	356	3919	-43	-26	26	0	8	98	1237	92594	1236	57230636
118	359	3918	-40	-24	30	0	6	94	1238	92644	1237	57230638
119	352	3907	-43	-26	26	0	6	94	1239	92743	1238	57230643
124	366	3900	-41	-26	26	-2	10	96	1240	92794	1239	57230643
130	357	3904	-42	-23	28	-2	10	96	1241	92893	1240	57230660
119	342	3910	-39	-26	27	-1	5	101	1242	92944	1241	57230660
116	358	3914	-43	-27	25	-1	5	101	1243	93043	1242	57230663
131	355	3913	-42	-25	28	-3	7	99	1244	93094	1243	57230668
140	357	3890	-40	-21	27	-3	7	99	1245	93193	1244	57230668
125	350	3904	-40	-22	29	-2	6	94	1246	93244	1245	57230687
120	372	3914	-42	-26	29	-2	6	94	1247	93342	1246	57230687
128	352	3927	-43	-25	27	-3	7	101	1248	93394	1247	57230689
136	346	3898	-45	-25	25	-3	7	101	1249	93492	1248	57230693
131	351	3913	-42	-26	27	-5	5	97	1250	93543	1249	57230696
135	359	3929	-41	-24	28	-5	5	97	1251	93642	1250	57230709
123	349	3918	-41	-26	23	0	6	98	1252	93693	1251	57230711
132	351	3906	-43	-28	25	0	6	98	1253	93792	1252	57230714
130	342	3907	-41	-24	27	2	8	92	1254	93843	1253	57230715
140	345	3904	-43	-23	25	2	8	92	1255	93941	1254	57230718
140	338	3922	-42	-25	28	2	2	94	1256	93992	1255	57230734
133	358	3916	-45	-27	31	2	2	94	1257	94091	1256	57230735
126	351	3912	-43	-25	26	1	3	99	1258	94142	1257	57230737
130	363	3909	-42	-25	27	1	3	99	1259	94241	1258	57230738
121	366	3905	-42	-27	26	1	7	99	1260	94292	1259	57230742
135	360	3919	-43	-30	27	1	7	99	1261	94391	1260	57230759
122	344	3930	-41	-23	28	-2	8	100	1262	94442	1261	57230760
117	359	3918	-43	-23	29	-2	8	100	1263	94541	1262	57230763
130	366	3903	-40	-26	24	0	6	96	1264	94592	1263	57230765
132	356	3893	-45	-28	25	0	6	96	1265	94691	1264	57230766
143	361	3904	-42	-24	28	0	12	90	1266	94742	1265	57230784
137	358	3914	-41	-25	25	0	12	90	1267	94841	1266	57230784
143	362	3913	-41	-27	28	1	7	101	1268	94892	1267	57230812
116	357	3910	-43	-25	29	1	7	101	1269	94991	1268	57230813
110	349	3913	-40	-30	27	3	11	91	1270	95042	1269	57230816
121	351	3892	-42	-27	27	3	11	91	1271	95141	1270	57230816
134	362	3921	-43	-26	27	-4	8	100	1272	95192	1271	57230817
125	346	3923	-40	-25	28	-4	8	100	1273	95291	1272	57230820
122	352	3905	-38	-26	27	-5	7	95	1274	95342	1273	57230825
125	350	3920	-42	-22	28	-5	7	95	1275	95440	1274	57230827
117	345	3899	-41	-24	24	-1	7	99	1276	95492	1275	57230835
125	357	3878	-42	-25	25	-1	7	99	1277	95591	1276	57230836
129	357	3886	-43	-26	29	1	3	97	1278	95642	1277	57230841
123	343	3900	-43	-25	27	1	3	97	1279	95741	1278	57230841
113	351	3890	-39	-26	25	-4	2	98	1280	95792	1279	57230844
129	358	3916	-42	-24	29	-4	2	98	1281	95891	1280	57230859
130	359	3912	-42	-25	26	-3	5	99	1282	95942	1281	57230859
119	347	3939	-43	-25	26	-3	5	99	1283	96041	1282	57230862
119	353	3904	-40	-26	28	1	5	95	1284	96092	1283	57230863
125	355	3905	-42	-27	28	1	5	95	1285	96191	1284	57230884
125	370	3893	-42	-27	22	-5	1	97	1286	96242	1285	57230888
139	357	3897	-42	-26	27	-5	1	97	1287	96341	1286	57230888
133	350	3914	-39	-26	27	-5	9	95	1288	96392	1287	57230889
132	338	3909	-42	-25	26	-5	9	95	1289	96491	1288	57230889
118	353	3906	-40	-26	29	-7	7	89	1290	96542	1289	57230909
113	350	3895	-43	-26	29	-7	7	89	1291	96641	1290	57230909
125	356	3902	-43	-27	27	-1	11	103	1292	96691	1291	57230911
119	344	3907	-46	-25	31	-1	11	103	1293	96790	1292	57230912
123	347	3916	-40	-27	29	-2	6	100	1294	96841	1293	57230913
132	352	3896	-45	-26	23	-2	6	100	1295	96940	1294	57230934
119	350	3930	-43	-24	27	-2	4	100	1296	96991	1295	57230939
129	348	3910	-43	-25	25	-2	4	100	1297	97090	1296	57230939
120	345	3918	-41	-23	25	2	4	98	1298	97141	1297	57230940
125	347	3905	-40	-24	27	2	4	98	1299	97240	1298	57230940
124	341	3901	-40	-26	29	0	10	100	1300	97291	1299	57230959
135	357	3913	-41	-26	25	0	10	100	1301	97389	1300	57230960
134	359	3904	-41	-29	27	-3	7	95	1302	97440	1301	57230961
116	357	3917	-43	-23	30	-3	7	95	1303	97539	1302	57230965
113	356	3917	-42	-23	25	1	9	95	1304	97590	1303	57230980
112	362	3912	-41	-24	27	1	9	95	1305	97688	1304	57230986
134	340	3909	-42	-27	28	2	6	102	1306	97739	1305	57230987
127	350	3905	-42	-24	27	2	6	102	1307	97838	1306	57230988
128	359	3902	-42	-25	27	1	5	101	1308	97889	1307	57230990
134	364	3913	-39	-22	27	1	5	101	1309	97988	1308	57230991
129	353	3917	-40	-25	29	-6	8	96	1310	98039	1309	57231011
119	353	3912	-40	-28	24	-6	8	96	1311	98138	1310	57231012
124	347	3900	-43	-29	29	2	4	100	1312	98189	1311	57231015
136	357	3907	-43	-27	27	2	4	100	1313	98287	1312	57231015
129	354	3905	-40	-22	27	1	7	93	1314	98338	1313	57231016
125	367	3900	-42	-22	29	1	7	93	1315	98436	1314	57231020
135	373	3918	-43	-27	27	-5	7	99	1316	98487	1315	57231026
140	344	3927	-43	-25	26	-5	7	99	1317	98586	1316	57231036
116	345	3927	-41	-25	28	2	0	106	1318	98637	1317	57231037
121	337	3916	-40	-25	29	2	0	106	1319	98735	1318	57231039
109	350	3928	-41	-27	25	1	5	95	1320	98787	1319	57231061
131	353	3902	-43	-26	28	1	5	95	1321	98885	1320	57231062
124	356	3922	-40	-27	29	-3	9	101	1322	98936	1321	57231065
130	351	3893	-41	-25	26	-3	9	101	1323	99034	1322	57231065
120	350	3929	-42	-24	28	-1	5	97	1324	99085	1323	57231067
129	351	3895	-44	-24	25	-1	5	97	1325	99184	1324	57231069
138	350	3905	-38	-27	26	4	12	98	1326	99235	1325	57231069
127	350	3902	-39	-25	29	4	12	98	1327	99334	1326	57231085
121	359	3918	-41	-24	29	0	8	102	1328	99385	1327	57231086
135	344	3915	-43	-23	26	0	8	102	1329	99484	1328	57231088
120	349	3916	-44	-24	28	2	8	92	1330	99535	1329	57231096
117	362	3899	-41	-24	30	2	8	92	1331	99634	1330	57231096
118	364	3898	-43	-26	27	-2	4	94	1332	99685	1331	57231110
131	348	3912	-44	-24	27	-2	4	94	1333	99784	1332	57231111
125	352	3918	-42	-25	26	0	8	100	1334	99835	1333	57231113
123	345	3903	-43	-22	24	0	8	100	1335	99933	1334	57231120
122	357	3916	-40	-24	27	0	2	98	1336	99984	1335	57231120
126	358	3908	-42	-25	29	0	2	98	1337	100083	1336	57231134
115	354	3911	-40	-26	25	1	1	99	1338	100134	1337	57231134
122	365	3919	-41	-23	25	1	1	99	1339	100233	1338	57231137
125	349	3922	-39	-26	27	0	6	100	1340	100284	1339	57231171
125	341	3897	-41	-25	26	0	6	100	1341	100383	1340	57231171
131	350	3904	-40	-23	27	-1	5	97	1342	100434	1341	57231177
124	344	3904	-42	-25	31	-1	5	97	1343	100533	1342	57231177
123	353	3910	-42	-24	29	-1	11	91	1344	100584	1343	57231180
101	350	3921	-42	-24	28	-1	11	91	1345	100683	1344	57231182
119	360	3901	-42	-26	29	-8	8	92	1346	100734	1345	57231182
130	352	3909	-43	-27	28	-8	8	92	1347	100833	1346	57231196
111	357	3912	-41	-25	28	1	7	89	1348	100884	1347	57231197
118	352	3925	-43	-23	29	1	7	89	1349	100983	1348	57231200
143	343	3908	-41	-26	28	5	5	95	1350	101034	1349	57231200
121	359	3916	-42	-27	26	5	5	95	1351	101133	1350	57231203
130	358	3885	-42	-27	27	4	12	96	1352	101184	1351	57231204
127	363	3925	-44	-20	27	4	12	96	1353	101283	1352	57231205
127	362	3916	-40	-25	25	-3	9	101	1354	101334	1353	57231220
115	366	3921	-40	-27	29	-3	9	101	1355	101433	1354	57231221
122	362	3905	-41	-27	29	-3	3	95	1356	101484	1355	57231223
108	371	3907	-43	-24	24	-3	3	95	1357	101583	1356	57231232
116	347	3890	-43	-24	27	-3	3	95	1358	101634	1357	57231232
128	352	3919	-42	-24	27	-3	3	95	1359	101732	1358	57231246
107	365	3908	-41	-25	27	-2	4	98	1360	101784	1359	57231247
107	366	3928	-43	-25	28	-2	4	98	1361	101882	1360	57231249
131	353	3899	-40	-21	28	1	7	97	1362	101933	1361	57231255
124	355	3903	-42	-23	25	1	7	97	1363	102032	1362	57231256
130	362	3890	-41	-26	26	2	6	96	1364	102082	1363	57231272
127	368	3912	-41	-25	27	2	6	96	1365	102181	1364	57231272
120	355	3920	-41	-27	28	-4	4	98	1366	102232	1365	57231274
122	355	3907	-39	-24	28	-4	4	98	1367	102331	1366	57231279
128	341	3903	-41	-24	27	1	9	95	1368	102382	1367	57231280
117	338	3904	-42	-26	26	1	9	95	1369	102481	1368	57231296
120	343	3899	-40	-30	28	3	3	105	1370	102532	1369	57231296
121	354	3905	-42	-29	27	3	3	105	1371	102631	1370	57231298
120	359	3903	-40	-25	23	2	8	96	1372	102682	1371	57231305
114	346	3904	-42	-22	24	2	8	96	1373	102780	1372	57231305
124	353	3916	-41	-25	27	-5	7	93	1374	102831	1373	57231320
122	350	3896	-42	-25	25	-5	7	93	1375	102930	1374	57231321
127	367	3909	-41	-24	26	4	6	104	1376	102981	1375	57231323
123	362	3904	-43	-24	30	4	6	104	1377	103079	1376	57231324
127	364	3914	-42	-26	25	-1	13	93	1378	103130	1377	57231325
117	345	3907	-44	-26	26	-1	13	93	1379	103229	1378	57231345
150	352	3951	-41	-24	27	-2	6	100	1380	103280	1379	57231345
128	379	3914	-43	-25	27	-2	6	100	1381	103379	1380	57231349
139	364	3895	-42	-26	28	-1	7	99	1382	103430	1381	57231349
129	364	3918	-43	-22	27	-1	7	99	1383	103529	1382	57231353
121	362	3898	-41	-26	26	-1	5	101	1384	103580	1383	57231370
130	362	3899	-41	-26	27	-1	5	101	1385	103679	1384	57231370
139	372	3900	-38	-25	26	2	4	94	1386	103730	1385	57231374
153	368	3905	-42	-25	24	2	4	94	1387	103829	1386	57231374
135	365	3911	-42	-24	24	-1	9	97	1388	103880	1387	57231377
116	357	3905	-40	-27	29	-1	9	97	1389	103979	1388	57231395
127	354	3917	-43	-28	28	-3	5	99	1390	104030	1389	57231395
132	355	3911	-44	-27	25	-3	5	99	1391	104129	1390	57231399
123	348	3909	-41	-25	29	4	6	98	1392	104180	1391	57231399
130	350	3930	-42	-20	28	4	6	98	1393	104279	1392	57231404
119	362	3909	-42	-25	24	2	4	94	1394	104330	1393	57231420
126	342	3921	-42	-29	26	2	4	94	1395	104429	1394	57231421
119	345	3926	-43	-22	27	-4	8	102	1396	104480	1395	57231425
131	352	3908	-40	-22	25	-4	8	102	1397	104579	1396	57231425
127	346	3901	-39	-28	29	-1	7	95	1398	104630	1397	57231453
131	351	3924	-42	-27	26	-1	7	95	1399	104729	1398	57231454
144	348	3919	-40	-22	25	-1	5	97	1400	104780	1399	57231454
130	361	3893	-42	-20	26	-1	5	97	1401	104878	1400	57231474
129	359	3918	-41	-23	29	-2	2	96	1402	104930	1401	57231474
128	352	3935	-42	-30	27	-2	2	96	1403	105029	1402	57231477
125	358	3911	-41	-25	27	1	7	95	1404	105080	1403	57231480
121	345	3928	-42	-22	27	1	7	95	1405	105179	1404	57231481
134	353	3892	-41	-24	23	-2	6	96	1406	105230	1405	57231501
120	339	3918	-40	-25	26	-2	6	96	1407	105329	1406	57231501
129	364	3906	-41	-25	26	2	10	94	1408	105380	1407	57231502
135	358	3896	-42	-25	27	2	10	94	1409	105479	1408	57231505
117	343	3917	-43	-26	26	-5	5	97	1410	105530	1409	57231506
125	365	3894	-42	-27	29	-5	5	97	1411	105629	1410	57231522
131	365	3911	-41	-26	25	1	3	97	1412	105680	1411	57231522
136	346	3911	-46	-23	26	1	3	97	1413	105779	1412	57231525
126	354	3913	-42	-23	26	-1	7	97	1414	105830	1413	57231526
123	357	3904	-44	-24	26	-1	7	97	1415	105929	1414	57231528
122	355	3912	-41	-27	23	-3	7	99	1416	105979	1415	57231529
119	347	3903	-40	-23	26	-3	7	99	1417	106078	1416	57231529
125	342	3901	-40	-20	28	0	8	98	1418	106129	1417	57231545
135	364	3910	-42	-25	28	0	8	98	1419	106228	1418	57231545
127	354	3916	-42	-29	27	0	6	94	1420	106279	1419	57231548
112	349	3912	-41	-27	29	0	6	94	1421	106378	1420	57231549
127	329	3901	-42	-27	27	-2	4	96	1422	106429	1421	57231549
109	343	3906	-42	-24	29	-2	4	96	1423	106528	1422	57231570
131	336	3919	-41	-29	28	-1	3	97	1424	106579	1423	57231570
126	344	3925	-44	-26	23	-1	3	97	1425	106678	1424	57231573
123	356	3887	-41	-26	28	0	4	96	1426	106729	1425	57231574
118	344	3918	-41	-26	27	0	4	96	1427	106828	1426	57231575
105	360	3915	-39	-24	27	-1	7	97	1428	106879	1427	57231595
137	360	3895	-43	-23	29	-1	7	97	1429	106977	1428	57231596
123	356	3926	-42	-27	28	-9	5	97	1430	107029	1429	57231598
109	355	3901	-43	-27	26	-9	5	97	1431	107128	1430	57231599
115	355	3909	-43	-28	27	1	5	97	1432	107179	1431	57231599
118	340	3907	-43	-22	29	1	5	97	1433	107277	1432	57231620
123	344	3923	-41	-25	25	1	5	97	1434	107328	1433	57231621
132	350	3909	-42	-23	26	1	5	97	1435	107427	1434	57231623
134	364	3915	-41	-25	27	-4	0	96	1436	107478	1435	57231625
107	352	3923	-44	-25	25	-4	0	96	1437	107577	1436	57231626
121	357	3892	-43	-26	26	0	6	94	1438	107628	1437	57231645
133	350	3904	-44	-25	29	0	6	94	1439	107727	1438	57231645
119	347	3903	-41	-25	26	-1	7	97	1440	107778	1439	57231648
112	357	3897	-42	-26	28	-1	7	97	1441	107877	1440	57231649
125	342	3909	-40	-24	29	-3	7	101	1442	107928	1441	57231649
122	354	3924	-42	-23	26	-3	7	101	1443	108027	1442	57231670
131	348	3910	-43	-26	28	1	5	103	1444	108078	1443	57231670
129	371	3899	-42	-26	25	1	5	103	1445	108177	1444	57231674
134	358	3915	-43	-28	25	-2	2	98	1446	108228	1445	57231674
136	367	3908	-44	-25	24	-2	2	98	1447	108327	1446	57231676
126	361	3902	-41	-25	28	1	9	93	1448	108378	1447	57231695
123	364	3895	-44	-22	25	1	9	93	1449	108477	1448	57231695
129	360	3918	-43	-25	26	-3	5	93	1450	108528	1449	57231699
136	361	3926	-42	-28	27	-3	5	93	1451	108627	1450	57231699
123	359	3933	-40	-23	24	-2	12	100	1452	108678	1451	57231701
115	347	3899	-43	-21	25	-2	12	100	1453	108777	1452	57231720
129	352	3903	-43	-23	29	0	8	96	1454	108828	1453	57231720
131	339	3919	-45	-26	27	0	8	96	1455	108927	1454	57231724
124	355	3899	-43	-26	24	1	9	101	1456	108978	1455	57231724
105	366	3910	-43	-24	27	1	9	101	1457	109076	1456	57231726
141	352	3932	-45	-26	27	0	8	94	1458	109127	1457	57231745
128	366	3921	-43	-27	26	0	8	94	1459	109226	1458	57231746
121	366	3912	-42	-25	26	2	8	92	1460	109277	1459	57231749
117	359	3907	-41	-25	27	2	8	92	1461	109376	1460	57231750
120	358	3902	-42	-23	24	-3	9	99	1462	109427	1461	57231751
131	363	3902	-45	-25	27	-3	9	99	1463	109526	1462	57231756
125	355	3910	-42	-28	28	0	6	96	1464	109577	1463	57231757
137	362	3911	-42	-24	27	0	6	96	1465	109676	1464	57231775
130	358	3900	-39	-21	28	1	7	101	1466	109727	1465	57231775
139	364	3903	-42	-23	28	1	7	101	1467	109826	1466	57231775
114	344	3896	-43	-28	25	5	7	97	1468	109877	1467	57231782
136	355	3899	-43	-26	28	5	7	97	1469	109976	1468	57231782
120	346	3927	-44	-25	28	-5	5	95	1470	110027	1469	57231795
127	362	3910	-43	-27	26	-5	5	95	1471	110126	1470	57231795
109	345	3919	-40	-28	25	2	6	98	1472	110177	1471	57231798
120	344	3901	-40	-22	27	2	6	98	1473	110276	1472	57231804
128	356	3898	-41	-26	27	2	2	96	1474	110326	1473	57231804
133	342	3888	-40	-28	27	2	2	96	1475	110425	1474	57231820
135	353	3909	-39	-24	28	-5	5	99	1476	110476	1475	57231821
142	347	3903	-44	-23	27	-5	5	99	1477	110575	1476	57231828
134	355	3905	-41	-22	26	5	5	97	1478	110626	1477	57231828
129	348	3895	-40	-26	29	5	5	97	1479	110725	1478	57231831
115	352	3887	-42	-26	25	-1	1	101	1480	110776	1479	57231846
121	361	3887	-43	-24	28	-1	1	101	1481	110875	1480	57231847
124	344	3901	-41	-27	29	-5	9	93	1482	110926	1481	57231851
129	340	3894	-39	-25	25	-5	9	93	1483	111025	1482	57231852
136	347	3926	-41	-28	27	-3	11	95	1484	111076	1483	57231855
121	351	3901	-46	-28	26	-3	11	95	1485	111175	1484	57231869
128	360	3914	-42	-26	26	-1	7	97	1486	111226	1485	57231869
127	357	3904	-41	-22	26	-1	7	97	1487	111325	1486	57231878
137	348	3890	-42	-29	30	-4	8	94	1488	111376	1487	57231878
130	372	3888	-45	-28	28	-4	8	94	1489	111475	1488	57231881
133	366	3920	-42	-23	25	-3	7	97	1490	111526	1489	57231915
133	354	3911	-40	-25	29	-3	7	97	1491	111625	1490	57231915
144	351	3937	-43	-28	30	-1	7	105	1492	111676	1491	57231919
134	337	3908	-42	-25	24	-1	7	105	1493	111775	1492	57231919
127	358	3906	-41	-25	27	1	5	97	1494	111826	1493	57231921
118	352	3909	-43	-25	29	1	5	97	1495	111924	1494	57231923
125	358	3907	-40	-23	27	2	2	92	1496	111975	1495	57231924
141	351	3914	-44	-24	27	2	2	92	1497	112073	1496	57231926
116	347	3923	-41	-24	27	-2	2	102	1498	112124	1497	57231927
112	358	3911	-44	-27	24	-2	2	102	1499	112223	1498	57231930
116	363	3910	-43	-29	29	1	3	103	1500	112274	1499	57231964
124	353	3923	-40	-25	27	1	3	103	1501	112373	1500	57231964
132	352	3908	-40	-29	27	0	6	100	1502	112424	1501	57231968
122	347	3925	-45	-26	27	0	6	100	1503	112523	1502	57231968
122	357	3911	-42	-24	28	4	8	92	1504	112574	1503	57231970
125	350	3873	-42	-23	25	4	8	92	1505	112673	1504	57231971
132	361	3890	-40	-29	28	-3	7	91	1506	112724	1505	57231972
122	363	3894	-40	-29	31	-3	7	91	1507	112823	1506	57231978
131	354	3918	-44	-29	26	2	4	98	1508	112874	1507	57231978
134	365	3911	-45	-24	26	2	4	98	1509	112973	1508	57231986
133	349	3917	-40	-23	31	1	5	99	1510	113024	1509	57231987
125	362	3915	-41	-22	26	1	5	99	1511	113123	1510	57232001
133	361	3876	-41	-23	26	2	2	100	1512	113174	1511	57232003
145	363	3910	-41	-26	27	2	2	100	1513	113273	1512	57232003
133	358	3922	-41	-24	25	0	4	94	1514	113324	1513	57232011
128	366	3894	-40	-22	27	0	4	94	1515	113422	1514	57232012
125	371	3909	-42	-25	28	-5	5	97	1516	113474	1515	57232028
129	368	3907	-44	-26	25	-5	5	97	1517	113573	1516	57232029
123	355	3903	-42	-25	26	-2	6	98	1518	113624	1517	57232035
143	337	3907	-43	-24	27	-2	6	98	1519	113722	1518	57232037
124	371	3915	-39	-28	26	-2	8	96	1520	113773	1519	57232037
131	363	3929	-42	-27	26	-2	8	96	1521	113872	1520	57232050
127	358	3913	-41	-25	28	2	8	98	1522	113923	1521	57232051
120	364	3936	-42	-25	27	2	8	98	1523	114022	1522	57232055
119	351	3903	-42	-25	26	-4	8	96	1524	114073	1523	57232061
123	366	3896	-44	-26	28	-4	8	96	1525	114172	1524	57232062
125	373	3904	-41	-27	26	-9	5	99	1526	114223	1525	57232064
125	348	3915	-41	-23	27	-9	5	99	1527	114322	1526	57232102
120	349	3921	-41	-24	28	-3	7	99	1528	114373	1527	57232102
115	356	3924	-41	-24	27	-3	7	99	1529	114472	1528	57232106
117	363	3910	-42	-28	24	-1	3	95	1530	114523	1529	57232106
129	343	3910	-43	-26	27	-1	3	95	1531	114622	1530	57232107
129	364	3915	-40	-25	29	-1	5	95	1532	114673	1531	57232109
131	356	3920	-44	-24	28	-1	5	95	1533	114771	1532	57232109
110	360	3940	-40	-23	29	-2	6	90	1534	114823	1533	57232126
128	355	3895	-39	-28	28	-2	6	90	1535	114922	1534	57232126
124	347	3907	-40	-25	26	-4	8	96	1536	114973	1535	57232129
120	343	3916	-41	-25	28	-4	8	96	1537	115072	1536	57232130
122	348	3924	-42	-26	24	8	6	98	1538	115123	1537	57232130
125	357	3915	-46	-23	25	8	6	98	1539	115222	1538	57232134
122	361	3909	-42	-24	27	-2	6	96	1540	115273	1539	57232134
120	356	3896	-42	-26	26	-2	6	96	1541	115372	1540	57232151
122	348	3907	-42	-24	25	-6	6	104	1542	115423	1541	57232151
127	351	3907	-40	-24	28	-6	6	104	1543	115522	1542	57232155
129	361	3895	-42	-29	30	3	11	91	1544	115573	1543	57232160
126	359	3902	-42	-28	25	3	11	91	1545	115672	1544	57232160
120	355	3896	-43	-26	25	-2	8	94	1546	115723	1545	57232175
112	353	3908	-41	-23	27	-2	8	94	1547	115822	1546	57232175
129	357	3895	-41	-28	25	3	7	95	1548	115872	1547	57232177
126	370	3912	-44	-23	27	3	7	95	1549	115971	1548	57232185
110	384	3906	-42	-24	26	-9	3	99	1550	116022	1549	57232185
120	365	3907	-40	-27	25	-9	3	99	1551	116121	1550	57232202
120	350	3917	-40	-24	26	3	5	99	1552	116172	1551	57232202
125	340	3917	-43	-26	29	3	5	99	1553	116271	1552	57232204
136	353	3889	-43	-25	25	-7	9	97	1554	116322	1553	57232211
126	360	3904	-43	-27	27	-7	9	97	1555	116420	1554	57232211
124	356	3923	-45	-27	26	-2	6	94	1556	116471	1555	57232226
121	343	3926	-42	-24	25	-2	6	94	1557	116570	1556	57232232
119	338	3904	-42	-25	26	-2	6	102	1558	116621	1557	57232232
120	351	3895	-42	-24	28	-2	6	102	1559	116719	1558	57232236
117	361	3891	-40	-25	31	-3	3	99	1560	116770	1559	57232237
135	355	3918	-43	-25	27	-3	3	99	1561	116869	1560	57232250
127	346	3901	-42	-24	28	-7	7	99	1562	116920	1561	57232250
110	362	3918	-43	-23	27	-7	7	99	1563	117019	1562	57232252
122	343	3922	-42	-25	27	0	8	96	1564	117070	1563	57232259
127	357	3874	-40	-22	26	0	8	96	1565	117169	1564	57232259
120	357	3898	-40	-23	27	-2	6	100	1566	117220	1565	57232275
106	360	3920	-43	-24	25	-2	6	100	1567	117319	1566	57232275
89	355	3921	-40	-28	28	-1	5	99	1568	117370	1567	57232280
124	353	3903	-41	-25	26	-1	5	99	1569	117469	1568	57232280
123	357	3909	-42	-23	24	0	6	96	1570	117520	1569	57232284
126	360	3883	-44	-24	27	0	6	96	1571	117619	1570	57232300
113	346	3891	-40	-24	28	-4	10	102	1572	117670	1571	57232300
140	351	3909	-42	-26	26	-4	10	102	1573	117769	1572	57232304
124	365	3922	-43	-24	30	4	4	100	1574	117820	1573	57232304
144	353	3894	-44	-22	28	4	4	100	1575	117919	1574	57232308
125	346	3913	-42	-25	24	-2	6	92	1576	117970	1575	57232325
124	347	3920	-43	-26	27	-2	6	92	1577	118069	1576	57232325
119	359	3922	-42	-25	28	2	8	96	1578	118120	1577	57232329
120	356	3901	-43	-24	26	2	8	96	1579	118219	1578	57232329
114	345	3910	-40	-27	27	-2	8	98	1580	118270	1579	57232332
118	367	3920	-43	-25	28	-2	8	98	1581	118368	1580	57232350
147	357	3895	-42	-26	26	-3	3	97	1582	118419	1581	57232350
120	352	3937	-43	-25	28	-3	3	97	1583	118518	1582	57232354
113	358	3893	-41	-24	27	-5	5	97	1584	118569	1583	57232354
125	361	3892	-39	-26	28	-5	5	97	1585	118668	1584	57232358
113	342	3901	-40	-26	28	1	5	97	1586	118719	1585	57232375
126	347	3900	-41	-27	27	1	5	97	1587	118817	1586	57232375
117	348	3895	-39	-22	26	-3	5	103	1588	118869	1587	57232379
125	350	3932	-43	-23	27	-3	5	103	1589	118967	1588	57232379
131	358	3918	-41	-23	29	-1	5	91	1590	119019	1589	57232383
106	339	3900	-41	-24	27	-1	5	91	1591	119118	1590	57232403
133	358	3914	-42	-25	26	-1	3	99	1592	119169	1591	57232403
126	359	3915	-43	-29	27	-1	3	99	1593	119267	1592	57232407
127	353	3906	-40	-25	25	-3	3	97	1594	119318	1593	57232407
119	334	3907	-42	-24	26	-3	3	97	1595	119417	1594	57232409
133	350	3903	-44	-25	27	2	8	92	1596	119468	1595	57232425
121	357	3910	-44	-23	26	2	8	92	1597	119567	1596	57232426
135	361	3912	-41	-22	25	3	9	95	1598	119618	1597	57232429
129	366	3926	-42	-26	28	3	9	95	1599	119717	1598	57232429
116	340	3912	-41	-26	26	-1	5	93	1600	119768	1599	57232450
134	346	3896	-41	-27	25	-1	5	93	1601	119867	1600	57232450
115	365	3919	-40	-25	28	1	5	101	1602	119918	1601	57232450
131	348	3903	-43	-21	31	1	5	101	1603	120017	1602	57232455
113	343	3902	-41	-28	27	-2	12	92	1604	120068	1603	57232455
143	363	3912	-42	-26	30	-2	12	92	1605	120167	1604	57232478
134	359	3910	-43	-24	29	2	4	100	1606	120217	1605	57232478
133	359	3914	-43	-25	27	2	4	100	1607	120316	1606	57232480
116	356	3905	-40	-24	30	2	6	100	1608	120367	1607	57232481
108	355	3906	-41	-27	28	2	6	100	1609	120466	1608	57232481
129	351	3890	-41	-27	26	3	3	95	1610	120517	1609	57232499
137	361	3911	-43	-29	28	3	3	95	1611	120616	1610	57232499
129	357	3915	-42	-26	29	3	5	99	1612	120667	1611	57232501
126	353	3903	-42	-28	26	3	5	99	1613	120766	1612	57232504
121	348	3901	-44	-25	26	-5	9	91	1614	120817	1613	57232506
131	356	3914	-45	-25	28	-5	9	91	1615	120916	1614	57232539
130	363	3907	-45	-27	26	3	7	97	1616	120967	1615	57232539
114	329	3919	-42	-23	29	3	7	97	1617	121066	1616	57232542
133	363	3903	-42	-26	30	4	4	102	1618	121117	1617	57232542
133	348	3912	-43	-25	28	4	4	102	1619	121216	1618	57232543
109	347	3917	-41	-27	26	-2	4	96	1620	121267	1619	57232546
127	353	3897	-44	-27	25	-2	4	96	1621	121366	1620	57232547
137	371	3920	-45	-24	25	3	7	93	1622	121417	1621	57232549
128	371	3913	-43	-25	25	3	7	93	1623	121516	1622	57232564
124	363	3920	-40	-22	26	-8	12	98	1624	121567	1623	57232564
135	356	3926	-40	-26	30	-8	12	98	1625	121666	1624	57232567
136	363	3930	-39	-27	26	0	4	102	1626	121717	1625	57232568
148	362	3903	-43	-24	29	0	4	102	1627	121816	1626	57232570
128	352	3920	-42	-26	29	-6	2	94	1628	121867	1627	57232589
117	343	3933	-42	-27	26	-6	2	94	1629	121965	1628	57232589
127	353	3892	-42	-27	30	1	7	95	1630	122016	1629	57232592
127	361	3926	-43	-25	27	1	7	95	1631	122115	1630	57232593
132	359	3915	-42	-27	27	3	11	97	1632	122166	1631	57232598
130	354	3897	-43	-23	31	3	11	97	1633	122264	1632	57232598
151	351	3900	-39	-26	27	-5	9	97	1634	122316	1633	57232614
117	350	3899	-39	-26	26	-5	9	97	1635	122415	1634	57232615
120	359	3908	-40	-25	29	-6	0	96	1636	122466	1635	57232616
130	347	3895	-41	-23	27	-6	0	96	1637	122565	1636	57232626
117	347	3911	-41	-25	25	0	8	94	1638	122616	1637	57232632
120	364	3894	-42	-28	28	0	8	94	1639	122715	1638	57232639
134	351	3913	-40	-27	26	1	3	97	1640	122766	1639	57232640
118	356	3890	-42	-24	27	1	3	97	1641	122865	1640	57232640
116	364	3916	-40	-23	27	2	6	92	1642	122916	1641	57232649
126	347	3917	-42	-26	28	2	6	92	1643	123014	1642	57232649
118	346	3921	-43	-27	28	4	2	98	1644	123065	1643	57232651
116	362	3901	-42	-23	28	4	2	98	1645	123164	1644	57232664
122	339	3902	-39	-25	30	-3	1	99	1646	123215	1645	57232664
120	345	3923	-42	-28	25	-3	1	99	1647	123313	1646	57232673
120	359	3920	-41	-25	28	-3	3	95	1648	123364	1647	57232673
135	365	3904	-44	-23	28	-3	3	95	1649	123463	1648	57232689
124	363	3903	-42	-24	26	-2	4	100	1650	123513	1649	57232692
124	360	3918	-45	-25	27	-2	4	100	1651	123612	1650	57232692
118	360	3924	-42	-22	28	2	8	92	1652	123663	1651	57232698
127	366	3920	-43	-23	25	2	8	92	1653	123762	1652	57232698
120	356	3926	-42	-26	27	3	1	97	1654	123813	1653	57232742
126	368	3923	-41	-22	28	3	1	97	1655	123912	1654	57232743
126	361	3915	-42	-24	26	-1	7	103	1656	123963	1655	57232744
116	348	3920	-44	-21	28	-1	7	103	1657	124061	1656	57232747
127	347	3882	-40	-24	27	-4	6	90	1658	124112	1657	57232747
117	358	3937	-43	-28	28	-4	6	90	1659	124211	1658	57232749
120	355	3922	-44	-26	27	-4	2	100	1660	124262	1659	57232751
137	351	3928	-43	-27	29	-4	2	100	1661	124361	1660	57232751
118	367	3918	-42	-27	28	0	14	96	1662	124411	1661	57232767
128	350	3914	-43	-27	27	0	14	96	1663	124510	1662	57232768
137	375	3909	-42	-27	31	-1	3	97	1664	124561	1663	57232771
135	372	3925	-43	-32	28	-1	3	97	1665	124660	1664	57232772
138	342	3906	-42	-24	29	3	5	99	1666	124711	1665	57232776
143	349	3899	-42	-27	28	3	5	99	1667	124810	1666	57232778
124	352	3897	-44	-26	26	2	6	96	1668	124861	1667	57232779
117	343	3910	-43	-27	28	2	6	96	1669	124959	1668	57232789
145	360	3912	-40	-28	31	-1	-3	101	1670	125010	1669	57232789
133	349	3902	-42	-22	25	-1	-3	101	1671	125109	1670	57232792
122	353	3898	-41	-23	23	-3	13	99	1672	125160	1671	57232798
126	361	3920	-41	-27	25	-3	13	99	1673	125259	1672	57232798
142	350	3888	-43	-25	29	0	8	94	1674	125310	1673	57232807
141	347	3908	-42	-24	27	0	8	94	1675	125409	1674	57232808
117	344	3917	-41	-26	26	-1	15	103	1676	125459	1675	57232812
133	353	3918	-41	-24	26	-1	15	103	1677	125558	1676	57232829
115	353	3898	-40	-27	25	-2	8	96	1678	125609	1677	57232830
116	355	3887	-44	-27	29	-2	8	96	1679	125708	1678	57232834
117	361	3903	-43	-26	29	-2	8	100	1680	125759	1679	57232835
127	352	3910	-44	-26	28	-2	8	100	1681	125858	1680	57232837
128	365	3913	-43	-26	28	-4	6	98	1682	125909	1681	57232853
102	352	3904	-41	-27	28	-4	6	98	1683	126008	1682	57232853
123	365	3926	-39	-27	24	-6	8	94	1684	126059	1683	57232856
106	357	3886	-42	-26	24	-6	8	94	1685	126158	1684	57232856
126	363	3909	-41	-22	28	-2	6	94	1686	126209	1685	57232860
118	355	3917	-39	-26	26	-2	6	94	1687	126308	1686	57232878
125	357	3884	-44	-26	28	0	0	100	1688	126359	1687	57232878
130	362	3898	-43	-24	28	0	0	100	1689	126458	1688	57232882
122	350	3922	-42	-24	25	-1	3	95	1690	126509	1689	57232882
123	348	3891	-44	-25	27	-1	3	95	1691	126608	1690	57232886
140	355	3927	-41	-26	29	-3	11	99	1692	126659	1691	57232903
137	348	3915	-44	-26	25	-3	11	99	1693	126758	1692	57232906
125	341	3915	-42	-25	28	-4	2	96	1694	126809	1693	57232907
142	353	3904	-41	-25	28	-4	2	96	1695	126908	1694	57232907
145	352	3907	-40	-26	28	-9	9	95	1696	126959	1695	57232927
127	367	3928	-42	-26	26	-9	9	95	1697	127058	1696	57232928
134	359	3931	-41	-27	29	1	5	103	1698	127109	1697	57232930
124	369	3918	-41	-25	27	1	5	103	1699	127208	1698	57232931
137	353	3902	-40	-27	24	-3	7	101	1700	127259	1699	57232931
119	347	3914	-43	-23	29	-3	7	101	1701	127357	1700	57232951
139	358	3907	-43	-27	29	1	5	97	1702	127409	1701	57232952
130	342	3905	-43	-23	26	1	5	97	1703	127508	1702	57232956
124	349	3910	-42	-27	27	-4	4	96	1704	127559	1703	57232957
125	347	3880	-43	-27	26	-4	4	96	1705	127658	1704	57232958
123	356	3929	-41	-28	24	4	8	98	1706	127709	1705	57232977
123	352	3913	-43	-27	27	4	8	98	1707	127808	1706	57232980
132	353	3898	-41	-26	28	2	8	88	1708	127859	1707	57232981
137	354	3915	-41	-24	30	2	8	88	1709	127958	1708	57232981
124	358	3922	-42	-26	27	0	10	100	1710	128009	1709	57232981
106	352	3916	-43	-23	28	0	10	100	1711	128108	1710	57233001
113	364	3898	-40	-25	25	0	0	100	1712	128159	1711	57233001
142	349	3924	-40	-23	28	0	0	100	1713	128258	1712	57233004
122	358	3924	-39	-26	30	4	2	94	1714	128309	1713	57233005
125	362	3929	-42	-23	26	4	2	94	1715	128408	1714	57233005
121	362	3905	-45	-25	25	0	6	90	1716	128459	1715	57233026
121	358	3911	-45	-25	29	0	6	90	1717	128557	1716	57233027
134	359	3908	-42	-27	26	-1	7	99	1718	128608	1717	57233029
133	358	3895	-43	-26	26	-1	7	99	1719	128707	1718	57233030
124	359	3908	-41	-26	28	2	4	100	1720	128758	1719	57233031
142	356	3907	-43	-26	28	2	4	100	1721	128857	1720	57233051
125	365	3893	-40	-29	29	-5	3	93	1722	128908	1721	57233051
132	347	3918	-42	-26	28	-5	3	93	1723	129007	1722	57233054
115	347	3929	-41	-24	26	-1	9	99	1724	129058	1723	57233055
124	361	3926	-41	-26	28	-1	9	99	1725	129157	1724	57233055
138	351	3904	-41	-26	28	0	10	100	1726	129208	1725	57233077
121	357	3897	-40	-25	26	0	10	100	1727	129307	1726	57233077
115	358	3915	-42	-26	26	-1	9	97	1728	129358	1727	57233079
134	348	3886	-44	-25	29	-1	9	97	1729	129457	1728	57233080
125	366	3902	-41	-25	30	1	9	89	1730	129508	1729	57233081
129	368	3896	-44	-23	25	1	9	89	1731	129607	1730	57233101
126	347	3919	-44	-23	28	-3	1	99	1732	129658	1731	57233103
132	354	3922	-41	-25	25	-3	1	99	1733	129757	1732	57233106
129	341	3897	-39	-28	26	-4	4	100	1734	129808	1733	57233106
131	358	3898	-43	-27	30	-4	4	100	1735	129907	1734	57233108
120	347	3910	-40	-27	25	-2	4	90	1736	129958	1735	57233126
140	363	3931	-41	-21	27	-2	4	90	1737	130057	1736	57233126
124	348	3936	-41	-24	30	1	-1	99	1738	130108	1737	57233130
107	353	3902	-42	-25	29	1	-1	99	1739	130207	1738	57233130
125	351	3900	-42	-22	25	1	7	95	1740	130258	1739	57233133
149	361	3901	-42	-22	29	1	7	95	1741	130357	1740	57233154
128	347	3902	-43	-24	26	-4	2	96	1742	130408	1741	57233154
133	340	3908	-44	-22	29	-4	2	96	1743	130507	1742	57233158
120	349	3915	-42	-23	30	-3	1	101	1744	130558	1743	57233158
124	364	3918	-40	-25	27	-3	1	101	1745	130657	1744	57233160
129	354	3929	-40	-25	24	-1	5	99	1746	130708	1745	57233179
123	350	3907	-43	-27	27	-1	5	99	1747	130806	1746	57233179
120	349	3913	-41	-25	28	-1	7	99	1748	130858	1747	57233183
123	343	3899	-41	-28	25	-1	7	99	1749	130957	1748	57233188
135	357	3916	-43	-24	29	-4	10	90	1750	131008	1749	57233195
133	358	3918	-46	-22	27	-4	10	90	1751	131107	1750	57233195
144	360	3909	-42	-27	24	-6	8	96	1752	131158	1751	57233200
132	340	3922	-41	-24	26	-6	8	96	1753	131257	1752	57233203
116	358	3914	-41	-24	27	5	7	97	1754	131308	1753	57233203
122	345	3914	-43	-26	25	5	7	97	1755	131407	1754	57233205
115	338	3909	-44	-27	25	-3	5	91	1756	131458	1755	57233228
123	344	3896	-42	-27	28	-3	5	91	1757	131557	1756	57233228
132	355	3906	-43	-27	27	-3	3	103	1758	131608	1757	57233232
143	354	3912	-44	-23	28	-3	3	103	1759	131707	1758	57233232
128	346	3895	-41	-23	28	6	6	96	1760	131758	1759	57233235
119	364	3905	-42	-24	26	6	6	96	1761	131857	1760	57233236
150	355	3891	-42	-24	26	-1	13	101	1762	131908	1761	57233251
135	352	3924	-44	-22	29	-1	13	101	1763	132007	1762	57233253
128	362	3918	-40	-22	26	0	4	100	1764	132058	1763	57233253
137	364	3909	-41	-27	25	0	4	100	1765	132157	1764	57233260
131	352	3917	-41	-26	28	-4	4	98	1766	132208	1765	57233260
124	346	3899	-40	-24	27	-4	4	98	1767	132307	1766	57233278
104	340	3908	-40	-27	25	0	4	94	1768	132358	1767	57233279
127	340	3921	-41	-26	28	0	4	94	1769	132457	1768	57233279
139	348	3924	-42	-28	27	0	8	92	1770	132508	1769	57233284
126	362	3912	-44	-24	27	0	8	92	1771	132607	1770	57233284
125	363	3910	-44	-23	28	1	9	93	1772	132658	1771	57233288
107	349	3912	-41	-25	26	1	9	93	1773	132757	1772	57233303
126	361	3937	-41	-27	25	1	7	101	1774	132808	1773	57233307
118	354	3897	-42	-24	28	1	7	101	1775	132907	1774	57233310
114	357	3920	-39	-25	27	0	4	100	1776	132958	1775	57233311
125	356	3915	-43	-23	26	0	4	100	1777	133057	1776	57233326
131	340	3890	-41	-26	30	3	7	99	1778	133108	1777	57233328
135	357	3900	-42	-26	30	3	7	99	1779	133207	1778	57233328
116	347	3917	-41	-26	26	-2	6	94	1780	133258	1779	57233335
118	363	3915	-43	-26	26	-2	6	94	1781	133357	1780	57233335
126	349	3930	-42	-25	26	1	5	97	1782	133408	1781	57233337
123	358	3891	-40	-27	25	1	5	97	1783	133507	1782	57233378
117	362	3911	-40	-26	28	-7	7	93	1784	133558	1783	57233378
142	365	3907	-42	-23	29	-7	7	93	1785	133657	1784	57233382
140	355	3908	-41	-27	26	-3	-1	91	1786	133708	1785	57233382
116	357	3910	-42	-25	28	-3	-1	91	1787	133807	1786	57233384
110	339	3919	-42	-28	27	2	2	96	1788	133858	1787	57233385
116	358	3943	-44	-27	27	2	2	96	1789	133957	1788	57233386
134	368	3899	-43	-25	28	1	-1	99	1790	134008	1789	57233403
128	364	3919	-43	-25	28	1	-1	99	1791	134107	1790	57233403
123	362	3921	-40	-32	25	-6	4	94	1792	134158	1791	57233407
135	348	3912	-42	-26	26	-6	4	94	1793	134257	1792	57233407
118	355	3902	-42	-22	27	3	7	103	1794	134308	1793	57233409
124	359	3888	-43	-26	27	3	7	103	1795	134407	1794	57233410
128	358	3889	-41	-29	26	0	8	92	1796	134458	1795	57233411
130	371	3882	-45	-26	28	0	8	92	1797	134557	1796	57233427
139	366	3916	-41	-21	27	2	4	104	1798	134608	1797	57233427
113	353	3907	-43	-23	25	2	4	104	1799	134707	1798	57233429
126	357	3918	-40	-27	27	-3	7	97	1800	134758	1799	57233435
135	353	3894	-44	-25	28	-3	7	97	1801	134857	1800	57233447
122	347	3927	-43	-23	27	1	7	101	1802	134908	1801	57233451
126	359	3914	-45	-26	26	1	7	101	1803	135007	1802	57233452
121	355	3913	-41	-28	28	1	11	95	1804	135058	1803	57233454
117	364	3919	-41	-25	26	1	11	95	1805	135157	1804	57233457
122	369	3884	-40	-27	31	-3	9	97	1806	135208	1805	57233457
125	364	3918	-43	-22	26	-3	9	97	1807	135307	1806	57233476
134	354	3920	-43	-24	25	2	2	100	1808	135358	1807	57233477
135	340	3907	-44	-28	27	2	2	100	1809	135457	1808	57233479
134	348	3930	-41	-27	26	2	8	96	1810	135508	1809	57233481
128	357	3902	-42	-24	25	2	8	96	1811	135607	1810	57233482
136	365	3918	-39	-23	29	2	4	98	1812	135658	1811	57233501
127	343	3896	-42	-25	29	2	4	98	1813	135757	1812	57233502
116	357	3898	-43	-27	26	-5	9	101	1814	135808	1813	57233505
127	349	3920	-44	-24	30	-5	9	101	1815	135907	1814	57233506
120	348	3920	-41	-28	28	-1	5	95	1816	135958	1815	57233511
126	351	3890	-42	-28	26	-1	5	95	1817	136057	1816	57233526
126	346	3908	-42	-22	28	3	-1	97	1818	136108	1817	57233527
118	367	3908	-43	-22	27	3	-1	97	1819	136206	1818	57233530
117	361	3918	-41	-24	28	-2	6	92	1820	136257	1819	57233530
124	360	3902	-44	-29	29	-2	6	92	1821	136356	1820	57233532
123	349	3921	-43	-24	29	1	5	99	1822	136407	1821	57233551
130	353	3915	-42	-24	26	1	5	99	1823	136506	1822	57233552
122	352	3924	-42	-25	28	-3	7	101	1824	136557	1823	57233558
122	362	3902	-43	-25	30	-3	7	101	1825	136656	1824	57233559
122	368	3931	-42	-25	26	0	6	100	1826	136707	1825	57233560
112	347	3896	-43	-21	27	0	6	100	1827	136805	1826	57233577
125	358	3896	-42	-21	29	-2	4	102	1828	136857	1827	57233577
126	353	3913	-42	-24	27	-2	4	102	1829	136956	1828	57233580
126	347	3908	-41	-27	26	-3	7	95	1830	137007	1829	57233581
134	358	3928	-43	-27	28	-3	7	95	1831	137106	1830	57233583
111	360	3946	-40	-25	27	4	0	94	1832	137157	1831	57233601
118	357	3901	-40	-23	25	4	0	94	1833	137256	1832	57233602
117	365	3902	-41	-26	29	-4	6	100	1834	137307	1833	57233605
118	338	3916	-41	-26	28	-4	6	100	1835	137405	1834	57233606
122	350	3908	-39	-27	26	-3	7	95	1836	137456	1835	57233608
123	338	3932	-42	-25	27	-3	7	95	1837	137555	1836	57233627
140	360	3903	-38	-24	24	0	4	98	1838	137606	1837	57233630
98	367	3927	-42	-28	24	0	4	98	1839	137705	1838	57233631
120	360	3908	-43	-29	30	0	4	96	1840	137756	1839	57233631
122	354	3898	-43	-25	29	0	4	96	1841	137855	1840	57233633
128	336	3925	-42	-24	27	-5	3	93	1842	137906	1841	57233653
134	343	3900	-46	-27	30	-5	3	93	1843	138005	1842	57233653
118	366	3911	-43	-29	27	-4	8	104	1844	138055	1843	57233656
122	359	3909	-41	-27	29	-4	8	104	1845	138154	1844	57233657
122	343	3903	-39	-25	28	-4	6	96	1846	138205	1845	57233659
123	341	3902	-40	-23	28	-4	6	96	1847	138304	1846	57233678
117	347	3913	-42	-23	25	-1	5	101	1848	138355	1847	57233678
120	359	3908	-43	-23	27	-1	5	101	1849	138454	1848	57233681
112	356	3925	-42	-27	29	1	7	97	1850	138505	1849	57233682
134	348	3919	-41	-24	26	1	7	97	1851	138604	1850	57233701
130	354	3912	-42	-22	27	0	8	102	1852	138655	1851	57233702
124	365	3898	-44	-25	28	0	8	102	1853	138754	1852	57233705
140	360	3898	-41	-27	25	-1	7	93	1854	138805	1853	57233705
133	359	3914	-42	-22	27	-1	7	93	1855	138904	1854	57233705
123	365	3921	-41	-22	27	-2	8	94	1856	138955	1855	57233726
139	368	3914	-45	-22	30	-2	8	94	1857	139054	1856	57233727
145	374	3909	-42	-24	28	-2	8	100	1858	139105	1857	57233729
137	356	3931	-40	-24	31	-2	8	100	1859	139204	1858	57233730
118	358	3893	-41	-26	25	-2	4	94	1860	139255	1859	57233730
113	359	3899	-45	-20	28	-2	4	94	1861	139354	1860	57233738
121	361	3922	-41	-23	28	4	8	94	1862	139405	1861	57233738
137	348	3917	-41	-28	27	4	8	94	1863	139504	1862	57233751
130	346	3905	-41	-27	25	0	4	98	1864	139555	1863	57233752
131	363	3907	-41	-25	28	0	4	98	1865	139654	1864	57233756
119	342	3902	-43	-24	29	-1	11	91	1866	139705	1865	57233764
118	357	3923	-44	-24	27	-1	11	91	1867	139803	1866	57233764
128	357	3919	-41	-24	29	-1	7	95	1868	139855	1867	57233776
125	341	3899	-43	-25	27	-1	7	95	1869	139954	1868	57233778
120	356	3904	-41	-24	25	-5	7	99	1870	140005	1869	57233778
129	362	3927	-44	-25	29	-5	7	99	1871	140104	1870	57233788
120	371	3902	-41	-26	26	2	2	96	1872	140155	1871	57233788
127	338	3888	-42	-25	28	2	2	96	1873	140254	1872	57233802
126	366	3924	-41	-28	28	-3	11	97	1874	140305	1873	57233803
114	343	3933	-42	-25	25	-3	11	97	1875	140404	1874	57233803
136	350	3915	-44	-21	24	-5	5	99	1876	140455	1875	57233813
120	357	3916	-44	-24	26	-5	5	99	1877	140554	1876	57233813
136	356	3928	-42	-28	27	-3	5	99	1878	140605	1877	57233816
126	352	3915	-44	-23	27	-3	5	99	1879	140704	1878	57233826
121	335	3914	-44	-21	28	1	9	99	1880	140755	1879	57233827
131	351	3906	-42	-24	26	1	9	99	1881	140854	1880	57233836
133	361	3910	-41	-30	23	7	3	93	1882	140905	1881	57233837
137	359	3903	-43	-26	28	7	3	93	1883	141003	1882	57233851
111	345	3894	-42	-24	27	3	3	105	1884	141054	1883	57233851
128	352	3932	-40	-23	29	3	3	105	1885	141153	1884	57233852
116	358	3918	-38	-24	29	2	10	98	1886	141204	1885	57233861
142	346	3906	-43	-24	29	2	10	98	1887	141303	1886	57233862
118	362	3919	-41	-27	26	-2	2	96	1888	141354	1887	57233877
121	357	3890	-42	-22	25	-2	2	96	1889	141453	1888	57233877
123	366	3907	-40	-22	27	3	7	99	1890	141504	1889	57233879
132	347	3913	-42	-29	25	3	7	99	1891	141603	1890	57233887
128	354	3913	-41	-27	26	-3	5	95	1892	141654	1891	57233887
135	351	3893	-42	-20	27	-3	5	95	1893	141753	1892	57233902
119	363	3910	-40	-25	26	0	0	102	1894	141804	1893	57233902
120	368	3896	-43	-26	29	0	0	102	1895	141903	1894	57233905
120	353	3892	-42	-28	28	2	4	98	1896	141954	1895	57233912
108	358	3904	-44	-25	27	2	4	98	1897	142053	1896	57233912
144	362	3929	-42	-24	27	-1	3	103	1898	142104	1897	57233927
123	360	3913	-41	-25	29	-1	3	103	1899	142203	1898	57233927
126	349	3901	-41	-27	26	2	8	100	1900	142254	1899	57233929
131	345	3902	-40	-25	27	2	8	100	1901	142353	1900	57233935
134	347	3914	-41	-26	29	-3	7	97	1902	142404	1901	57233935
108	354	3912	-44	-24	24	-3	7	97	1903	142502	1902	57233952
118	350	3891	-43	-26	27	-4	6	100	1904	142554	1903	57233952
122	356	3917	-43	-23	27	-4	6	100	1905	142653	1904	57233954
127	364	3936	-41	-26	26	-6	6	100	1906	142704	1905	57233960
125	349	3917	-44	-25	27	-6	6	100	1907	142803	1906	57233961
115	354	3884	-45	-26	27	-6	4	102	1908	142854	1907	57233978
134	363	3915	-41	-25	25	-6	4	102	1909	142953	1908	57233981
125	364	3929	-41	-26	25	0	4	104	1910	143004	1909	57233981
135	354	3914	-42	-29	28	0	4	104	1911	143103	1910	57233985
108	354	3912	-41	-25	26	-3	7	97	1912	143154	1911	57233985
122	342	3885	-44	-20	24	-3	7	97	1913	143253	1912	57234029
119	352	3914	-40	-24	26	2	10	100	1914	143304	1913	57234030
129	350	3934	-43	-26	27	2	10	100	1915	143403	1914	57234033
135	365	3915	-42	-27	25	-4	10	100	1916	143454	1915	57234036
121	343	3901	-43	-22	26	-4	10	100	1917	143553	1916	57234037
110	343	3901	-41	-21	25	-4	10	96	1918	143604	1917	57234038
126	369	3926	-42	-24	26	-4	10	96	1919	143703	1918	57234039
119	338	3919	-42	-26	28	1	7	93	1920	143754	1919	57234051
145	357	3895	-43	-23	28	1	7	93	1921	143853	1920	57234052
121	362	3923	-43	-24	26	-3	7	91	1922	143904	1921	57234055
126	353	3922	-42	-24	26	-3	7	91	1923	144003	1922	57234055
152	353	3918	-42	-28	29	2	10	102	1924	144054	1923	57234056
127	358	3905	-42	-25	26	2	10	102	1925	144153	1924	57234059
124	354	3913	-41	-24	25	-1	7	97	1926	144204	1925	57234059
141	358	3879	-41	-24	28	-1	7	97	1927	144303	1926	57234062
133	360	3924	-42	-24	25	-1	1	95	1928	144354	1927	57234077
132	343	3897	-41	-24	26	-1	1	95	1929	144453	1928	57234077
129	352	3876	-40	-24	29	1	9	97	1930	144504	1929	57234080
132	358	3921	-45	-25	24	1	9	97	1931	144602	1930	57234080
134	368	3919	-42	-28	26	0	8	94	1932	144653	1931	57234084
130	359	3921	-41	-29	27	0	8	94	1933	144752	1932	57234101
117	338	3897	-40	-28	25	-1	5	97	1934	144803	1933	57234102
98	369	3903	-42	-26	26	-1	5	97	1935	144902	1934	57234105
120	363	3918	-41	-25	28	0	6	100	1936	144953	1935	57234105
116	370	3919	-41	-27	25	0	6	100	1937	145052	1936	57234109
120	356	3896	-38	-25	26	-2	4	98	1938	145103	1937	57234126
109	371	3891	-40	-24	30	-2	4	98	1939	145202	1938	57234127
131	357	3902	-42	-29	27	1	7	95	1940	145253	1939	57234130
133	365	3908	-45	-24	26	1	7	95	1941	145351	1940	57234130
121	352	3909	-42	-22	29	-2	10	94	1942	145403	1941	57234135
122	358	3889	-42	-24	27	-2	10	94	1943	145501	1942	57234151
132	357	3911	-42	-29	28	-2	6	98	1944	145552	1943	57234152
135	352	3918	-40	-26	27	-2	6	98	1945	145650	1944	57234156
117	347	3926	-42	-25	29	-2	8	98	1946	145702	1945	57234156
125	356	3907	-41	-23	27	-2	8	98	1947	145801	1946	57234176
133	367	3885	-39	-27	31	1	5	95	1948	145852	1947	57234179
138	351	3894	-42	-25	28	1	5	95	1949	145951	1948	57234179
137	347	3899	-41	-26	23	-2	4	100	1950	146002	1949	57234180
107	363	3920	-41	-23	27	-2	4	100	1951	146101	1950	57234180
113	343	3903	-39	-26	28	-4	0	102	1952	146152	1951	57234201
136	347	3917	-41	-25	27	-4	0	102	1953	146250	1952	57234202
119	365	3906	-42	-26	29	-4	6	96	1954	146301	1953	57234204
126	364	3896	-42	-26	28	-4	6	96	1955	146400	1954	57234205
129	346	3911	-41	-27	26	-3	7	99	1956	146451	1955	57234205
138	347	3905	-42	-27	28	-3	7	99	1957	146550	1956	57234227
127	355	3927	-41	-24	29	4	6	98	1958	146600	1957	57234227
112	368	3919	-41	-24	26	4	6	98	1959	146699	1958	57234229
135	358	3921	-42	-25	25	-1	7	99	1960	146750	1959	57234230
116	351	3914	-42	-26	29	-1	7	99	1961	146849	1960	57234231
122	347	3906	-42	-26	25	-2	8	98	1962	146900	1961	57234252
108	361	3920	-45	-25	27	-2	8	98	1963	146998	1962	57234252
123	347	3898	-42	-26	27	-7	7	97	1964	147049	1963	57234256
130	347	3892	-43	-27	23	-7	7	97	1965	147147	1964	57234256
124	354	3917	-41	-27	28	-3	5	103	1966	147198	1965	57234257
139	356	3895	-42	-26	25	-3	5	103	1967	147297	1966	57234276
126	370	3892	-40	-23	26	3	3	99	1968	147347	1967	57234277
127	344	3900	-42	-23	28	3	3	99	1969	147446	1968	57234279
110	352	3912	-38	-25	27	2	-2	100	1970	147496	1969	57234280
119	331	3926	-40	-27	25	2	-2	100	1971	147594	1970	57234281
119	350	3918	-42	-25	27	2	12	94	1972	147645	1971	57234301
123	344	3909	-42	-26	28	2	12	94	1973	147743	1972	57234307
124	354	3901	-42	-26	28	-5	5	95	1974	147794	1973	57234307
133	369	3921	-42	-26	26	-5	5	95	1975	147892	1974	57234308
129	366	3920	-43	-24	30	-6	6	94	1976	147943	1975	57234308
120	358	3907	-42	-25	28	-6	6	94	1977	148041	1976	57234326
114	344	3903	-40	-23	28	-2	0	96	1978	148092	1977	57234327
120	359	3915	-43	-26	29	-2	0	96	1979	148190	1978	57234330
118	360	3920	-41	-26	27	-1	1	95	1980	148241	1979	57234330
120	347	3915	-40	-25	24	-1	1	95	1981	148340	1980	57234333
129	354	3928	-41	-26	29	1	9	93	1982	148390	1981	57234354
123	358	3918	-43	-25	30	1	9	93	1983	148488	1982	57234355
135	350	3919	-43	-27	25	0	6	94	1984	148539	1983	57234358
125	370	3917	-42	-24	24	0	6	94	1985	148638	1984	57234358
113	353	3906	-42	-26	26	2	10	96	1986	148688	1985	57234360
121	360	3904	-41	-27	26	2	10	96	1987	148787	1986	57234363
127	354	3907	-43	-27	28	-6	8	92	1988	148837	1987	57234363
98	346	3918	-43	-23	28	-6	8	92	1989	148935	1988	57234381
124	355	3927	-41	-24	25	0	4	104	1990	148986	1989	57234382
125	353	3909	-42	-27	29	0	4	104	1991	149085	1990	57234384
132	349	3915	-41	-28	28	5	9	95	1992	149136	1991	57234403
106	351	3907	-44	-26	24	5	9	95	1993	149234	1992	57234403
122	358	3911	-43	-22	24	4	4	104	1994	149285	1993	57234406
129	355	3886	-43	-28	28	4	4	104	1995	149384	1994	57234407
143	349	3893	-42	-30	26	-1	7	95	1996	149434	1995	57234409
135	358	3898	-42	-27	27	-1	7	95	1997	149533	1996	57234411
114	358	3901	-41	-23	28	-2	10	96	1998	149583	1997	57234412
117	366	3911	-41	-26	26	-2	10	96	1999	149682	1998	57234427
134	344	3888	-40	-28	28	-1	-1	105	2000	149732	1999	57234428
139	360	3914	-42	-25	27	-1	-1	105	2001	149830	2000	57234430
114	364	3914	-41	-27	24	4	8	96	2002	149881	2001	57234438
129	355	3919	-40	-22	25	4	8	96	2003	149980	2002	57234438
136	358	3913	-39	-26	28	1	-3	97	2004	150031	2003	57234451
123	357	3891	-41	-22	26	1	-3	97	2005	150129	2004	57234452
125	350	3904	-43	-25	25	-1	5	95	2006	150180	2005	57234454
129	337	3922	-43	-21	29	-1	5	95	2007	150279	2006	57234460
116	358	3924	-42	-25	28	-2	2	102	2008	150330	2007	57234460
119	341	3913	-42	-29	29	-2	2	102	2009	150429	2008	57234478
130	351	3921	-43	-25	29	-4	4	100	2010	150480	2009	57234478
115	344	3910	-42	-24	25	-4	4	100	2011	150578	2010	57234485
120	346	3910	-40	-23	28	-2	12	96	2012	150629	2011	57234485
138	342	3894	-41	-23	31	-2	12	96	2013	150727	2012	57234486
136	359	3902	-41	-23	27	-6	2	98	2014	150778	2013	57234502
127	362	3917	-40	-25	24	-6	2	98	2015	150876	2014	57234502
134	363	3902	-41	-27	27	-4	8	98	2016	150927	2015	57234507
111	349	3914	-42	-26	26	-4	8	98	2017	151026	2016	57234508
125	357	3924	-42	-23	29	3	9	99	2018	151077	2017	57234511
124	365	3891	-42	-22	29	3	9	99	2019	151175	2018	57234526
129	360	3906	-43	-28	28	6	8	102	2020	151226	2019	57234527
130	343	3928	-44	-25	28	6	8	102	2021	151324	2020	57234534
111	354	3889	-42	-26	29	0	8	92	2022	151375	2021	57234534
130	356	3885	-43	-24	27	0	8	92	2023	151473	2022	57234537
126	351	3886	-42	-24	26	5	3	99	2024	151524	2023	57234552
120	358	3902	-42	-24	29	5	3	99	2025	151622	2024	57234552
127	370	3917	-43	-28	28	3	5	91	2026	151673	2025	57234559
130	363	3919	-45	-27	24	3	5	91	2027	151772	2026	57234560
118	364	3880	-43	-24	26	-3	7	95	2028	151822	2027	57234562
132	346	3927	-43	-27	30	-3	7	95	2029	151921	2028	57234577
128	335	3891	-41	-27	23	-4	6	102	2030	151972	2029	57234579
114	335	3892	-42	-23	27	-4	6	102	2031	152070	2030	57234585
132	356	3923	-43	-24	29	4	6	96	2032	152121	2031	57234586
129	350	3892	-46	-24	25	4	6	96	2033	152219	2032	57234587
129	352	3918	-41	-26	27	2	4	104	2034	152270	2033	57234602
114	360	3898	-45	-27	28	2	4	104	2035	152368	2034	57234602
135	373	3900	-41	-25	27	-3	9	97	2036	152419	2035	57234609
134	356	3913	-43	-24	27	-3	9	97	2037	152517	2036	57234609
137	352	3909	-40	-27	28	0	6	96	2038	152568	2037	57234612
140	335	3920	-41	-25	26	0	6	96	2039	152666	2038	57234652
116	360	3895	-44	-24	28	-2	8	94	2040	152717	2039	57234652
129	356	3913	-43	-24	32	-2	8	94	2041	152815	2040	57234655
135	358	3911	-44	-25	28	3	3	97	2042	152866	2041	57234656
131	360	3902	-44	-26	26	3	3	97	2043	152964	2042	57234659
125	374	3891	-42	-26	26	-2	2	92	2044	153015	2043	57234659
126	364	3913	-40	-24	26	-2	2	92	2045	153114	2044	57234662
118	351	3899	-38	-25	27	-2	12	100	2046	153164	2045	57234663
123	357	3895	-40	-26	27	-2	12	100	2047	153262	2046	57234663
129	345	3930	-40	-28	27	-2	10	94	2048	153313	2047	57234678
124	340	3924	-39	-23	27	-2	10	94	2049	153411	2048	57234678
124	347	3916	-40	-25	27	0	8	100	2050	153462	2049	57234680
137	347	3915	-43	-27	26	0	8	100	2051	153560	2050	57234681
140	339	3903	-41	-27	27	-5	1	99	2052	153611	2051	57234682
127	372	3910	-43	-26	27	-5	1	99	2053	153709	2052	57234705
126	355	3918	-43	-24	27	0	2	100	2054	153760	2053	57234705
126	354	3910	-43	-24	26	0	2	100	2055	153858	2054	57234707
123	360	3920	-42	-27	27	-3	9	95	2056	153909	2055	57234708
116	350	3914	-43	-25	28	-3	9	95	2057	154007	2056	57234708
118	355	3936	-40	-25	27	-4	10	100	2058	154058	2057	57234729
125	357	3924	-43	-24	31	-4	10	100	2059	154156	2058	57234729
140	374	3918	-43	-25	29	2	6	100	2060	154207	2059	57234732
129	364	3926	-43	-25	27	2	6	100	2061	154305	2060	57234733
122	330	3910	-42	-27	30	3	9	97	2062	154356	2061	57234733
122	355	3922	-41	-24	28	3	9	97	2063	154454	2062	57234755
120	350	3904	-41	-26	25	2	4	98	2064	154505	2063	57234757
124	337	3917	-42	-26	28	2	4	98	2065	154603	2064	57234758
134	355	3918	-41	-26	29	-2	2	100	2066	154654	2065	57234759
122	358	3916	-42	-25	26	-2	2	100	2067	154752	2066	57234759
130	358	3919	-43	-24	28	-10	10	94	2068	154803	2067	57234778
109	337	3896	-44	-24	28	-10	10	94	2069	154902	2068	57234781
126	344	3911	-41	-24	29	-4	4	96	2070	154952	2069	57234782
125	357	3915	-42	-24	28	-4	4	96	2071	155051	2070	57234785
130	363	3915	-41	-27	29	-2	8	88	2072	155101	2071	57234785
126	362	3900	-42	-23	28	-2	8	88	2073	155200	2072	57234802
125	337	3917	-40	-26	25	-6	8	100	2074	155250	2073	57234803
130	348	3914	-41	-27	28	-6	8	100	2075	155349	2074	57234806
121	343	3920	-41	-27	25	-1	7	105	2076	155400	2075	57234806
120	357	3919	-42	-23	28	-1	7	105	2077	155498	2076	57234809
136	356	3905	-40	-25	30	-2	2	100	2078	155549	2077	57234828
122	361	3900	-44	-25	26	-2	2	100	2079	155647	2078	57234828
128	352	3908	-42	-26	25	-2	4	102	2080	155698	2079	57234831
129	353	3920	-42	-24	30	-2	4	102	2081	155796	2080	57234832
125	351	3908	-41	-23	28	-1	7	101	2082	155847	2081	57234835
129	355	3920	-43	-23	25	-1	7	101	2083	155945	2082	57234853
124	355	3914	-42	-25	27	-6	8	102	2084	155996	2083	57234853
110	352	3876	-44	-24	27	-6	8	102	2085	156095	2084	57234856
113	361	3913	-41	-28	26	-2	0	98	2086	156145	2085	57234857
129	358	3909	-42	-26	27	-2	0	98	2087	156243	2086	57234859
118	354	3920	-44	-27	28	-4	6	96	2088	156294	2087	57234877
121	346	3880	-44	-25	25	-4	6	96	2089	156393	2088	57234877
134	361	3889	-39	-23	29	1	-1	97	2090	156444	2089	57234880
129	355	3904	-46	-24	28	1	-1	97	2091	156542	2090	57234880
121	365	3906	-43	-24	25	-3	11	99	2092	156593	2091	57234883
117	352	3896	-42	-27	26	-3	11	99	2093	156691	2092	57234902
123	363	3891	-41	-28	27	-1	1	99	2094	156742	2093	57234902
134	350	3928	-44	-25	27	-1	1	99	2095	156841	2094	57234906
130	356	3906	-40	-25	29	-2	2	102	2096	156892	2095	57234907
129	376	3927	-39	-25	29	-2	2	102	2097	156990	2096	57234908
134	373	3877	-38	-25	26	-4	8	98	2098	157041	2097	57234916
145	351	3902	-41	-26	27	-4	8	98	2099	157139	2098	57234919
131	360	3913	-43	-25	26	4	4	96	2100	157190	2099	57234928
129	352	3931	-45	-26	25	4	4	96	2101	157288	2100	57234928
130	357	3890	-40	-29	28	4	4	94	2102	157339	2101	57234938
124	359	3915	-41	-25	29	4	4	94	2103	157437	2102	57234938
132	375	3914	-40	-22	26	-2	10	98	2104	157488	2103	57234940
124	358	3898	-43	-24	28	-2	10	98	2105	157586	2104	57234962
136	352	3892	-41	-25	28	1	5	95	2106	157637	2105	57234962
114	348	3903	-42	-25	26	1	5	95	2107	157735	2106	57234977
126	345	3907	-43	-26	28	-2	6	96	2108	157786	2107	57234978
119	368	3905	-42	-23	27	-2	6	96	2109	157885	2108	57234980
127	360	3924	-41	-24	27	-3	3	99	2110	157936	2109	57234981
114	359	3912	-41	-28	25	-3	3	99	2111	158035	2110	57234982
121	354	3914	-41	-27	29	-2	12	96	2112	158086	2111	57234986
134	357	3905	-43	-24	26	-2	12	96	2113	158185	2112	57234987
118	374	3903	-41	-25	26	-2	4	102	2114	158235	2113	57235001
124	354	3900	-44	-24	28	-2	4	102	2115	158334	2114	57235003
127	350	3892	-40	-28	26	2	0	102	2116	158385	2115	57235003
102	367	3911	-42	-26	24	2	0	102	2117	158484	2116	57235011
127	363	3912	-40	-23	29	-4	6	98	2118	158535	2117	57235012
128	342	3922	-42	-23	28	-4	6	98	2119	158634	2118	57235027
123	366	3905	-40	-25	26	-2	8	102	2120	158685	2119	57235028
121	341	3913	-44	-29	26	-2	8	102	2121	158784	2120	57235028
123	360	3894	-42	-26	25	-2	12	96	2122	158835	2121	57235037
121	362	3919	-42	-25	26	-2	12	96	2123	158934	2122	57235037
106	357	3908	-41	-24	26	-4	-2	102	2124	158985	2123	57235051
115	349	3901	-43	-27	27	-4	-2	102	2125	159084	2124	57235055
126	362	3912	-40	-26	24	-2	8	98	2126	159135	2125	57235055
121	342	3910	-43	-25	28	-2	8	98	2127	159234	2126	57235061
116	346	3909	-41	-25	29	-1	3	101	2128	159285	2127	57235066
111	368	3928	-43	-26	27	-1	3	101	2129	159384	2128	57235067
129	372	3929	-41	-29	27	-7	5	97	2130	159435	2129	57235076
102	359	3899	-40	-27	28	-7	5	97	2131	159534	2130	57235077
118	355	3906	-41	-22	26	-1	5	97	2132	159585	2131	57235087
121	355	3917	-42	-24	29	-1	5	97	2133	159684	2132	57235087
