Accl X	Accl Y	Accl Z	Gyro X	Gyro Y	Gyro Z	Mag X	Mag Y	Mag Z	RPkt#	Rtime	LPkt#	Ltime
-111	-1011	3776	-42	-25	28	69	-17	139	0	0	0	78951293
-109	-1025	3783	-41	-23	28	64	-12	138	1	52	1	78951296
-119	-992	3789	-43	-23	27	64	-12	138	2	151	2	78951297
-113	-1019	3785	-43	-27	26	60	-18	136	3	203	3	78951297
-110	-1011	3786	-42	-25	25	60	-18	136	4	302	4	78951301
-129	-1008	3799	-43	-25	28	60	-12	138	5	354	5	78951301
-118	-1014	3790	-42	-25	27	60	-12	138	6	453	6	78951303
-96	-1006	3802	-41	-24	26	61	-13	137	7	505	7	78951305
-115	-1010	3802	-42	-26	27	61	-13	137	8	604	8	78951305
-131	-1022	3785	-41	-24	30	68	-20	136	9	656	9	78951313
-117	-1001	3782	-43	-21	26	68	-20	136	10	755	10	78951314
-98	-1013	3786	-41	-24	30	62	-8	140	11	807	11	78951317
-118	-1016	3798	-42	-27	29	62	-8	140	12	906	12	78951351
-126	-1007	3786	-42	-22	25	63	-17	141	13	958	13	78951351
-121	-1004	3777	-41	-22	28	63	-17	141	14	1057	14	78951355
-110	-1008	3775	-39	-25	27	66	-14	138	15	1109	15	78951355
-123	-1018	3759	-43	-24	26	66	-14	138	16	1208	16	78951357
-125	-1008	3792	-41	-23	26	62	-14	138	17	1260	17	78951358
-122	-1011	3796	-41	-26	30	62	-14	138	18	1359	18	78951359
-118	-1004	3787	-43	-26	26	63	-13	137	19	1411	19	78951363
-124	-1010	3792	-43	-24	26	63	-13	137	20	1510	20	78951364
-118	-1004	3780	-42	-26	30	64	-18	140	21	1562	21	78951373
-105	-1020	3792	-44	-23	26	64	-18	140	22	1661	22	78951374
-123	-1016	3790	-41	-23	25	67	-19	137	23	1713	23	78951377
-124	-1006	3791	-43	-23	29	67	-19	137	24	1813	24	78951410
-123	-1025	3779	-42	-25	28	62	-16	140	25	1865	25	78951410
-120	-1023	3786	-42	-23	28	62	-16	140	26	1964	26	78951414
-112	-997	3802	-41	-23	27	65	-11	141	27	2016	27	78951414
-104	-1005	3794	-43	-23	27	65	-11	141	28	2115	28	78951416
-120	-1009	3794	-42	-23	27	60	-12	136	29	2167	29	78951418
-121	-1007	3813	-47	-24	29	60	-12	136	30	2266	30	78951418
-118	-1025	3784	-43	-25	28	58	-12	134	31	2318	31	78951422
-122	-1015	3787	-44	-27	28	58	-12	134	32	2417	32	78951423
-113	-1002	3778	-42	-26	28	63	-17	141	33	2469	33	78951426
-127	-1018	3772	-45	-25	28	63	-17	141	34	2568	34	78951459
-117	-1016	3778	-41	-25	26	62	-16	138	35	2620	35	78951460
-136	-1026	3780	-43	-24	28	62	-16	138	36	2719	36	78951463
-104	-1004	3765	-43	-28	28	61	-21	143	37	2771	37	78951463
-104	-998	3782	-42	-27	25	61	-21	143	38	2870	38	78951465
-107	-1011	3786	-43	-25	26	64	-12	140	39	2922	39	78951466
-143	-1010	3773	-38	-24	28	64	-12	140	40	3021	40	78951467
-115	-1001	3759	-39	-24	27	64	-12	138	41	3073	41	78951471
-117	-1004	3783	-45	-24	27	64	-12	138	42	3172	42	78951472
-115	-991	3777	-43	-23	29	63	-13	141	43	3224	43	78951473
-123	-1027	3782	-43	-24	27	63	-13	141	44	3323	44	78951506
-113	-1007	3766	-40	-24	26	66	-14	144	45	3375	45	78951507
-117	-1014	3797	-40	-24	29	66	-14	144	46	3474	46	78951510
-128	-1025	3787	-41	-26	26	58	-12	138	47	3526	47	78951510
-118	-1021	3758	-43	-24	26	58	-12	138	48	3625	48	78951513
-119	-1005	3791	-42	-25	28	58	-22	138	49	3677	49	78951514
-112	-1001	3790	-43	-23	24	58	-22	138	50	3776	50	78951515
-116	-1019	3803	-41	-23	27	60	-14	138	51	3828	51	78951522
-111	-1013	3801	-41	-26	29	60	-14	138	52	3927	52	78951523
-126	-1011	3801	-41	-26	26	60	-16	140	53	3979	53	78951532
-115	-1000	3779	-43	-20	27	60	-16	140	54	4078	54	78951532
-115	-1014	3801	-40	-22	29	65	-11	141	55	4130	55	78951536
-108	-1022	3805	-42	-26	27	65	-11	141	56	4229	56	78951570
-122	-1000	3791	-40	-26	25	61	-13	141	57	4281	57	78951570
-129	-1010	3810	-42	-25	28	61	-13	141	58	4380	58	78951573
-128	-1013	3798	-38	-23	28	63	-17	137	59	4432	59	78951574
-129	-1000	3792	-40	-27	24	63	-17	137	60	4531	60	78951576
-101	-1016	3788	-42	-23	27	61	-11	137	61	4583	61	78951577
-110	-1009	3791	-45	-23	28	61	-11	137	62	4682	62	78951578
-133	-1007	3791	-43	-25	26	66	-14	140	63	4734	63	78951581
-101	-1011	3783	-44	-25	30	66	-14	140	64	4833	64	78951581
-123	-992	3782	-40	-25	30	61	-17	143	65	4885	65	78951585
-114	-1012	3798	-42	-24	25	61	-17	143	66	4984	66	78951619
-130	-1003	3795	-42	-24	28	63	-19	141	67	5036	67	78951619
-127	-1015	3788	-41	-24	27	63	-19	141	68	5135	68	78951622
-110	-1014	3799	-41	-25	24	61	-13	139	69	5187	69	78951623
-107	-1010	3785	-43	-25	27	61	-13	139	70	5286	70	78951626
-132	-1005	3788	-40	-25	29	60	-12	134	71	5338	71	78951627
-113	-1006	3778	-43	-23	25	60	-12	134	72	5437	72	78951629
-116	-1004	3805	-43	-24	27	61	-15	137	73	5489	73	78951630
-107	-1004	3772	-46	-22	31	61	-15	137	74	5588	74	78951632
-120	-1012	3794	-41	-23	25	61	-9	143	75	5640	75	78951634
-127	-1019	3796	-42	-25	27	61	-9	143	76	5739	76	78951643
-109	-1015	3794	-41	-28	28	67	-23	147	77	5791	77	78951645
-86	-1016	3781	-40	-24	27	67	-23	147	78	5890	78	78951677
-110	-994	3786	-43	-24	27	66	-12	140	79	5942	79	78951678
-117	-1022	3783	-42	-25	29	66	-12	140	80	6041	80	78951681
-126	-1011	3827	-42	-24	28	56	-16	144	81	6093	81	78951681
-115	-1027	3778	-41	-24	26	56	-16	144	82	6192	82	78951681
-104	-1019	3778	-41	-25	27	65	-13	137	83	6244	83	78951685
-102	-1014	3790	-43	-23	29	65	-13	137	84	6343	84	78951685
-121	-1014	3782	-41	-26	27	60	-14	134	85	6395	85	78951690
-138	-1006	3766	-43	-23	27	60	-14	134	86	6494	86	78951690
-119	-999	3800	-40	-25	30	62	-10	140	87	6546	87	78951693
-116	-1021	3787	-40	-25	26	62	-10	140	88	6645	88	78951725
-108	-1000	3774	-39	-27	28	60	-14	138	89	6697	89	78951726
-116	-1014	3782	-43	-26	27	60	-14	138	90	6796	90	78951729
-120	-1011	3794	-42	-25	25	64	-16	138	91	6848	91	78951729
-112	-1013	3782	-41	-26	25	64	-16	138	92	6947	92	78951731
-127	-1026	3794	-43	-25	28	60	-16	136	93	6999	93	78951733
-116	-1012	3797	-43	-25	27	60	-16	136	94	7098	94	78951733
-134	-1003	3790	-44	-25	28	64	-12	142	95	7150	95	78951740
-115	-996	3772	-43	-25	30	64	-12	142	96	7249	96	78951740
-111	-1010	3758	-42	-25	28	63	-19	139	97	7301	97	78951743
-127	-1008	3790	-43	-25	27	63	-19	139	98	7400	98	78951776
-111	-1011	3794	-43	-25	27	58	-12	138	99	7452	99	78951776
-126	-1020	3795	-45	-22	28	58	-12	138	100	7551	100	78951779
-117	-1014	3773	-42	-26	26	61	-11	143	101	7603	101	78951780
-132	-1010	3787	-43	-24	30	61	-11	143	102	7702	102	78951782
-105	-1008	3791	-40	-26	27	59	-13	141	103	7754	103	78951783
-114	-1012	3801	-42	-25	25	59	-13	141	104	7853	104	78951784
-123	-1010	3763	-41	-25	28	62	-16	134	105	7905	105	78951788
-130	-1000	3780	-43	-23	25	62	-16	134	106	8004	106	78951788
-132	-999	3789	-40	-25	26	62	-10	142	107	8056	107	78951823
-118	-1002	3772	-40	-22	28	62	-10	142	108	8155	108	78951825
-118	-1012	3810	-43	-23	27	65	-13	141	109	8207	109	78951825
-113	-997	3794	-43	-23	24	65	-13	141	110	8306	110	78951827
-122	-1013	3790	-41	-24	30	60	-10	138	111	8358	111	78951827
-115	-1009	3782	-42	-25	28	60	-10	138	112	8457	112	78951831
-120	-1013	3789	-42	-25	28	67	-15	135	113	8509	113	78951831
-114	-1021	3803	-41	-24	26	67	-15	135	114	8608	114	78951833
-108	-995	3772	-41	-23	27	61	-13	141	115	8660	115	78951839
-130	-1011	3777	-41	-23	27	61	-13	141	116	8759	116	78951840
-129	-1015	3796	-40	-24	27	65	-17	143	117	8811	117	78951849
-111	-1006	3792	-41	-24	26	65	-17	143	118	8910	118	78951854
-113	-1022	3799	-42	-23	25	61	-13	139	119	8962	119	78951854
-131	-1016	3795	-44	-23	25	61	-13	139	120	9061	120	78951863
-125	-1010	3778	-42	-24	28	58	-16	142	121	9113	121	78951863
-130	-1001	3796	-43	-21	27	58	-16	142	122	9212	122	78951899
-137	-1014	3798	-41	-24	26	63	-19	141	123	9264	123	78951899
-125	-1004	3789	-43	-22	29	63	-19	141	124	9363	124	78951901
-116	-1019	3783	-41	-24	26	64	-18	138	125	9415	125	78951903
-122	-1015	3797	-43	-21	26	64	-18	138	126	9514	126	78951903
-124	-1010	3790	-39	-22	28	61	-11	137	127	9566	127	78951906
-124	-1011	3801	-45	-22	27	61	-11	137	128	9665	128	78951906
-104	-1015	3765	-42	-24	25	62	-10	136	129	9717	129	78951908
-104	-1008	3798	-41	-25	26	62	-10	136	130	9816	130	78951935
-108	-999	3788	-40	-26	26	64	-14	144	131	9868	131	78951935
-115	-998	3771	-41	-25	27	64	-14	144	132	9967	132	78951938
-111	-1010	3798	-39	-25	29	64	-14	140	133	10019	133	78951939
-124	-1004	3785	-41	-24	27	64	-14	140	134	10118	134	78951942
-117	-1014	3800	-41	-22	25	65	-15	135	135	10170	135	78951943
-119	-1018	3762	-43	-23	25	65	-15	135	136	10269	136	78951943
-102	-1016	3803	-41	-24	26	64	-16	134	137	10321	137	78951947
-104	-1011	3817	-42	-27	25	64	-16	134	138	10420	138	78951948
-115	-1000	3808	-44	-22	28	63	-17	141	139	10472	139	78951984
-116	-1005	3787	-42	-22	29	63	-17	141	140	10571	140	78951984
-117	-1009	3803	-41	-23	25	68	-18	140	141	10623	141	78951986
-114	-1018	3778	-42	-21	27	68	-18	140	142	10722	142	78951988
-114	-997	3787	-42	-24	27	59	-13	133	143	10774	143	78951988
-119	-1015	3791	-43	-23	27	59	-13	133	144	10873	144	78951991
-108	-1001	3778	-43	-25	28	59	-9	141	145	10925	145	78951992
-111	-999	3765	-42	-23	26	59	-9	141	146	11024	146	78951994
-109	-1010	3797	-39	-25	25	67	-13	137	147	11076	147	78951999
-115	-1016	3776	-43	-25	27	67	-13	137	148	11176	148	78951999
-115	-1011	3794	-41	-24	28	60	-16	140	149	11227	149	78952009
-127	-1006	3816	-45	-24	28	60	-16	140	150	11326	150	78952009
-110	-1026	3794	-41	-24	26	60	-14	136	151	11378	151	78952012
-119	-1009	3773	-42	-26	29	60	-14	136	152	11477	152	78952045
-114	-1018	3813	-41	-27	28	51	-13	143	153	11529	153	78952046
-131	-1008	3768	-44	-26	26	51	-13	143	154	11628	154	78952048
-117	-1008	3795	-44	-25	27	62	-22	140	155	11680	155	78952048
-112	-1008	3786	-44	-24	24	62	-22	140	156	11779	156	78952052
-125	-1004	3780	-42	-25	24	64	-14	136	157	11831	157	78952052
-120	-1002	3761	-43	-23	28	64	-14	136	158	11930	158	78952053
-127	-1005	3772	-41	-24	28	62	-12	138	159	11982	159	78952056
-112	-1016	3779	-41	-25	26	62	-12	138	160	12081	160	78952056
-122	-1018	3783	-39	-24	27	58	-18	144	161	12133	161	78952090
-105	-1012	3777	-41	-23	25	58	-18	144	162	12232	162	78952091
-126	-1017	3792	-38	-26	24	66	-12	142	163	12284	163	78952094
-107	-1007	3799	-39	-25	29	66	-12	142	164	12383	164	78952096
-116	-1004	3821	-37	-23	27	62	-16	136	165	12435	165	78952096
-100	-1016	3814	-40	-23	22	62	-16	136	166	12534	166	78952098
-113	-1012	3776	-37	-24	26	63	-13	137	167	12586	167	78952098
-126	-1009	3786	-40	-24	26	63	-13	137	168	12685	168	78952101
-121	-1020	3772	-41	-25	25	59	-15	137	169	12737	169	78952107
-115	-1011	3784	-45	-25	29	59	-15	137	170	12836	170	78952108
-124	-1001	3767	-40	-25	28	63	-15	141	171	12888	171	78952142
-99	-1005	3783	-43	-25	27	63	-15	141	172	12987	172	78952142
-106	-1007	3778	-40	-26	25	65	-15	139	173	13039	173	78952144
-114	-1020	3791	-42	-24	27	65	-15	139	174	13138	174	78952145
-106	-1005	3773	-39	-23	26	58	-14	136	175	13190	175	78952146
-120	-998	3769	-42	-21	25	58	-14	136	176	13289	176	78952149
-99	-1014	3762	-43	-25	28	56	-12	138	177	13341	177	78952149
-111	-1019	3789	-45	-22	26	56	-12	138	178	13440	178	78952152
-113	-1021	3787	-41	-26	26	62	-12	138	179	13492	179	78952154
-102	-1027	3795	-42	-23	27	62	-12	138	180	13591	180	78952155
-132	-1014	3807	-42	-25	28	62	-12	144	181	13643	181	78952189
-121	-1012	3794	-43	-26	28	62	-12	144	182	13742	182	78952190
-120	-1012	3803	-43	-24	27	66	-14	138	183	13794	183	78952191
-112	-1013	3792	-44	-23	27	66	-14	138	184	13893	184	78952193
-117	-997	3793	-44	-27	28	61	-11	137	185	13945	185	78952193
-124	-1026	3796	-46	-24	29	61	-11	137	186	14044	186	78952197
-116	-1014	3797	-45	-27	30	58	-16	136	187	14096	187	78952197
-114	-990	3769	-47	-28	28	58	-16	136	188	14195	188	78952201
-113	-1001	3804	-45	-24	27	59	-17	139	189	14247	189	78952201
-130	-1003	3780	-45	-25	29	59	-17	139	190	14346	190	78952207
-113	-1004	3789	-40	-24	25	68	-8	142	191	14398	191	78952239
-111	-1006	3792	-40	-22	27	68	-8	142	192	14497	192	78952239
-116	-1020	3790	-41	-25	31	62	-20	142	193	14549	193	78952243
-106	-1019	3781	-40	-24	25	62	-20	142	194	14648	194	78952243
-110	-999	3814	-43	-24	27	65	-19	131	195	14700	195	78952245
-115	-1006	3793	-43	-21	29	65	-19	131	196	14799	196	78952247
-114	-1007	3795	-44	-26	25	69	-17	133	197	14851	197	78952247
-119	-1008	3785	-43	-23	25	69	-17	133	198	14950	198	78952250
-124	-1003	3781	-42	-23	28	59	-17	131	199	15002	199	78952250
-120	-987	3770	-43	-24	26	59	-17	131	200	15101	200	78952254
-131	-1006	3767	-39	-22	27	64	-18	144	201	15153	201	78952287
-111	-1015	3773	-42	-24	27	64	-18	144	202	15252	202	78952288
-120	-1021	3775	-41	-25	25	58	-20	146	203	15304	203	78952290
-107	-1009	3772	-41	-24	27	58	-20	146	204	15403	204	78952291
-109	-1021	3767	-39	-25	30	63	-9	137	205	15455	205	78952293
-124	-1007	3784	-40	-23	26	63	-9	137	206	15554	206	78952294
-108	-1021	3794	-38	-24	25	61	-17	133	207	15606	207	78952295
-108	-1000	3782	-38	-24	26	61	-17	133	208	15705	208	78952299
-116	-999	3780	-39	-24	28	56	-14	138	209	15757	209	78952300
-134	-1015	3766	-45	-25	25	56	-14	138	210	15856	210	78952303
-105	-989	3805	-43	-24	29	65	-17	137	211	15908	211	78952335
-95	-986	3802	-42	-20	30	65	-17	137	212	16007	212	78952336
-124	-1006	3785	-36	-23	28	59	-17	137	213	16059	213	78952339
-108	-992	3778	-37	-24	30	59	-17	137	214	16158	214	78952339
-106	-1002	3785	-32	-21	30	59	-11	137	215	16210	215	78952343
-102	-1014	3794	-37	-22	29	59	-11	137	216	16309	216	78952343
-76	-1004	3716	-40	-27	26	61	-11	137	217	16361	217	78952343
-153	-1014	3711	-54	-23	28	61	-11	137	218	16460	218	78952348
-108	-1005	3887	-67	-31	21	62	-12	138	219	16512	219	78952348
-111	-995	3981	-47	-33	23	62	-12	138	220	16611	220	78952383
-117	-1020	3987	-54	-38	22	60	-18	142	221	16663	221	78952383
-126	-1020	3970	-40	-38	17	60	-18	142	222	16762	222	78952385
-167	-1065	4036	-35	-28	20	62	-10	138	223	16814	223	78952386
-122	-1035	3960	-45	-28	22	62	-10	138	224	16913	224	78952387
-155	-1033	3922	-64	-11	25	61	-13	141	225	16965	225	78952390
-102	-1034	3804	-92	-13	24	61	-13	141	226	17064	226	78952391
-103	-1006	3652	-102	-10	28	59	-11	139	227	17116	227	78952393
-100	-959	3556	-99	-14	20	59	-11	139	228	17215	228	78952399
-103	-935	3473	-95	-18	20	66	-20	140	229	17267	229	78952400
-124	-901	3449	-74	-23	24	66	-20	140	230	17366	230	78952435
-93	-909	3440	-46	-30	21	62	-14	136	231	17418	231	78952436
-119	-953	3511	-17	-29	22	62	-14	136	232	17517	232	78952437
-133	-980	3605	13	-29	24	63	-13	137	233	17569	233	78952439
-132	-1029	3708	33	-20	29	63	-13	137	234	17668	234	78952439
-117	-1081	3826	36	-20	31	61	-15	137	235	17720	235	78952442
-107	-1118	3899	28	-18	38	61	-15	137	236	17819	236	78952443
-93	-1132	3968	11	-17	40	64	-14	136	237	17871	237	78952445
-89	-1127	3976	-19	-23	38	64	-14	136	238	17970	238	78952448
-110	-1094	3896	-37	-25	39	60	-12	140	239	18022	239	78952448
-97	-1070	3845	-59	-32	37	60	-12	140	240	18121	240	78952482
-120	-1029	3764	-58	-34	33	60	-16	146	241	18173	241	78952483
-122	-996	3714	-51	-34	36	60	-16	146	242	18272	242	78952485
-130	-991	3647	-37	-34	38	61	-13	143	243	18324	243	78952486
-152	-1014	3635	-21	-30	35	61	-13	143	244	18423	244	78952486
-142	-1025	3626	0	-26	34	58	-14	134	245	18475	245	78952490
-141	-1054	3719	4	-23	30	58	-14	134	246	18574	246	78952491
-108	-1092	3778	6	-28	22	57	-13	139	247	18626	247	78952497
-104	-1100	3877	-6	-30	19	57	-13	139	248	18725	248	78952498
-111	-1093	3964	-21	-31	20	60	-18	144	249	18777	249	78952499
-126	-1081	3998	-41	-31	20	60	-18	144	250	18876	250	78952531
-144	-1080	4050	-59	-29	20	63	-13	137	251	18928	251	78952531
-147	-1055	4038	-75	-25	24	63	-13	137	252	19027	252	78952535
-141	-1038	3991	-81	-19	24	59	-17	143	253	19079	253	78952535
-124	-1039	3931	-91	-11	26	59	-17	143	254	19178	254	78952537
-108	-1015	3840	-94	-9	29	62	-12	134	255	19230	255	78952538
-80	-998	3701	-91	-10	27	62	-12	134	256	19329	256	78952539
-87	-949	3627	-102	-8	24	62	-12	136	257	19381	257	78952544
-97	-941	3671	-114	-16	25	62	-12	136	258	19480	258	78952544
-80	-937	3751	-109	-28	17	59	-9	139	259	19532	259	78952547
-113	-921	3832	-92	-34	14	59	-9	139	260	19631	260	78952575
-145	-935	3859	-70	-44	13	68	-14	142	261	19683	261	78952575
-136	-946	3865	-53	-39	12	68	-14	142	262	19782	262	78952578
-144	-980	3884	-41	-36	12	60	-14	136	263	19834	263	78952579
-169	-976	3897	-51	-26	18	60	-14	136	264	19933	264	78952581
-146	-976	3866	-68	-15	27	61	-15	137	265	19985	265	78952582
-129	-983	3817	-82	-6	29	61	-15	137	266	20084	266	78952582
-99	-954	3715	-85	-3	33	56	-10	138	267	20136	267	78952619
-99	-922	3604	-86	-4	38	56	-10	138	268	20235	268	78952619
-105	-874	3520	-75	-6	38	62	-18	142	269	20287	269	78952621
-85	-867	3515	-60	-7	40	62	-18	142	270	20386	270	78952622
-100	-850	3487	-37	-14	39	61	-15	135	271	20438	271	78952625
-87	-872	3489	-18	-17	38	61	-15	135	272	20537	272	78952626
-89	-898	3556	12	-18	35	66	-14	132	273	20589	273	78952627
-109	-958	3721	29	-20	37	66	-14	132	274	20688	274	78952629
-54	-984	3821	39	-30	31	61	-9	139	275	20740	275	78952634
-73	-1026	3873	34	-33	29	61	-9	139	276	20839	276	78952635
-77	-1050	3935	23	-38	26	68	-16	132	277	20891	277	78952643
-72	-1063	3952	3	-48	22	68	-16	132	278	20990	278	78952644
-85	-1046	3971	-9	-54	15	67	-9	141	279	21042	279	78952679
-114	-1039	3951	-27	-56	15	67	-9	141	280	21141	280	78952679
-149	-993	3908	-30	-56	15	67	-13	139	281	21193	281	78952679
-163	-1010	3818	-32	-53	15	67	-13	139	282	21292	282	78952682
-186	-995	3759	-22	-43	18	64	-14	134	283	21344	283	78952682
-184	-997	3690	-17	-30	21	64	-14	134	284	21443	284	78952686
-126	-994	3644	-9	-25	23	62	-12	134	285	21495	285	78952686
-134	-1045	3679	-12	-16	30	62	-12	134	286	21594	286	78952688
-112	-1069	3716	-8	-16	32	62	-16	136	287	21646	287	78952693
-106	-1073	3745	-10	-12	32	62	-16	136	288	21745	288	78952694
-82	-1083	3834	-16	-18	34	62	-14	136	289	21797	289	78952704
-107	-1096	3906	-25	-18	36	62	-14	136	290	21896	290	78952704
-119	-1099	3954	-29	-21	34	57	-15	141	291	21948	291	78952707
-91	-1121	4021	-40	-22	37	57	-15	141	292	22047	292	78952717
-92	-1100	4008	-43	-21	38	61	-13	143	293	22099	293	78952718
-79	-1112	3990	-56	-23	37	61	-13	143	294	22198	294	78952752
-48	-1100	3899	-63	-24	37	66	-18	140	295	22250	295	78952752
-57	-1035	3696	-80	-31	34	66	-18	140	296	22349	296	78952754
-71	-1031	3603	-109	-34	24	64	-18	140	297	22401	297	78952756
-41	-971	3668	-117	-49	13	64	-18	140	298	22500	298	78952756
-92	-916	3734	-100	-59	9	64	-16	140	299	22552	299	78952760
-93	-936	3726	-82	-71	2	64	-16	140	300	22651	300	78952760
-150	-927	3670	-43	-78	-6	63	-9	137	301	22703	301	78952763
-184	-992	3738	-10	-73	-6	63	-9	137	302	22802	302	78952765
-200	-1008	3796	4	-59	-6	63	-11	141	303	22854	303	78952765
-204	-1053	3860	-3	-39	4	63	-11	141	304	22953	304	78952800
-159	-1082	3877	-20	-33	15	68	-20	144	305	23005	305	78952800
-123	-1077	3860	-37	-12	22	68	-20	144	306	23104	306	78952802
-100	-1089	3783	-52	-6	31	63	-13	135	307	23156	307	78952803
-107	-1071	3722	-66	1	42	63	-13	135	308	23255	308	78952804
-84	-1009	3669	-67	0	48	61	-15	137	309	23307	309	78952807
-63	-995	3605	-64	-3	53	61	-15	137	310	23406	310	78952807
-41	-981	3630	-47	-7	57	60	-12	138	311	23458	311	78952812
-55	-994	3635	-30	-7	56	60	-12	138	312	23557	312	78952813
-33	-1023	3657	-12	-14	57	62	-16	140	313	23609	313	78952813
-32	-1028	3745	1	-21	59	62	-16	140	314	23708	314	78952849
-27	-1066	3800	3	-30	57	56	-20	138	315	23760	315	78952849
-20	-1106	3874	-7	-46	46	56	-20	138	316	23859	316	78952852
-41	-1111	3946	-26	-58	39	60	-14	134	317	23911	317	78952852
-18	-1091	3996	-49	-72	30	60	-14	134	318	24010	318	78952855
-68	-1086	4025	-66	-83	17	61	-17	139	319	24062	319	78952856
-94	-1034	3969	-78	-94	12	61	-17	139	320	24161	320	78952856
-136	-1021	3938	-80	-93	12	58	-10	140	321	24213	321	78952861
-169	-1014	3855	-81	-88	13	58	-10	140	322	24312	322	78952861
-179	-986	3766	-78	-76	18	62	-16	144	323	24364	323	78952865
-156	-957	3719	-74	-59	24	62	-16	144	324	24463	324	78952898
-154	-979	3705	-69	-47	27	62	-18	142	325	24515	325	78952899
-135	-982	3666	-65	-34	30	62	-18	142	326	24614	326	78952901
-98	-988	3670	-62	-26	32	66	-16	138	327	24666	327	78952902
-92	-982	3693	-62	-25	34	66	-16	138	328	24765	328	78952904
-73	-997	3726	-63	-28	31	67	-17	137	329	24817	329	78952905
-87	-1007	3772	-64	-29	35	67	-17	137	330	24916	330	78952906
-76	-997	3826	-65	-31	32	62	-14	142	331	24968	331	78952912
-59	-1011	3855	-59	-28	29	62	-14	142	332	25067	332	78952913
-61	-1014	3891	-57	-30	31	66	-24	136	333	25119	333	78952915
-7	-1019	3914	-57	-34	27	66	-24	136	334	25218	334	78952947
-22	-1032	3890	-54	-41	21	64	-16	136	335	25270	335	78952948
-7	-1029	3871	-57	-50	20	64	-16	136	336	25369	336	78952951
-25	-1040	3820	-66	-66	13	57	-15	141	337	25421	337	78952951
-12	-1017	3749	-77	-78	5	57	-15	141	338	25520	338	78952953
-37	-993	3711	-79	-86	0	58	-16	134	339	25572	339	78952954
-75	-975	3641	-80	-93	-2	58	-16	134	340	25671	340	78952955
-80	-942	3606	-75	-99	-5	65	-11	133	341	25723	341	78952959
-89	-932	3588	-62	-96	-1	65	-11	133	342	25822	342	78952960
-97	-932	3638	-50	-91	0	65	-13	139	343	25874	343	78952994
-98	-946	3667	-34	-85	4	65	-13	139	344	25973	344	78952995
-107	-969	3711	-21	-81	7	64	-18	146	345	26025	345	78952997
-88	-1001	3771	-14	-70	12	64	-18	146	346	26124	346	78952998
-86	-1013	3844	-11	-66	14	62	-12	138	347	26176	347	78952998
-74	-1030	3865	-16	-60	21	62	-12	138	348	26275	348	78953002
-69	-1061	3925	-23	-56	27	63	-21	143	349	26327	349	78953002
-29	-1049	3906	-36	-56	29	63	-21	143	350	26426	350	78953005
-35	-1042	3886	-42	-59	27	57	-15	137	351	26478	351	78953011
-41	-1041	3856	-53	-60	30	57	-15	137	352	26577	352	78953011
-12	-1036	3779	-57	-60	29	66	-16	140	353	26629	353	78953020
4	-1001	3761	-53	-69	29	66	-16	140	354	26728	354	78953021
3	-1007	3729	-47	-78	25	64	-16	138	355	26780	355	78953024
1	-995	3718	-42	-89	21	64	-16	138	356	26879	356	78953058
4	-1012	3729	-35	-98	16	60	-20	142	357	26931	357	78953059
0	-1027	3747	-29	-106	13	60	-20	142	358	27030	358	78953062
0	-1042	3789	-30	-117	9	64	-12	146	359	27082	359	78953063
-42	-1049	3848	-37	-120	6	64	-12	146	360	27181	360	78953065
-42	-1061	3847	-41	-127	8	61	-15	135	361	27233	361	78953066
-58	-1058	3884	-53	-126	8	61	-15	135	362	27332	362	78953066
-44	-1046	3907	-56	-124	11	63	-9	135	363	27384	363	78953070
-57	-1062	3900	-67	-118	16	63	-9	135	364	27483	364	78953070
-77	-1056	3901	-69	-112	20	67	-17	143	365	27535	365	78953072
-70	-1033	3852	-71	-104	25	67	-17	143	366	27634	366	78953107
-75	-1037	3810	-71	-100	31	62	-20	146	367	27686	367	78953108
-54	-1022	3788	-69	-93	37	62	-20	146	368	27785	368	78953112
-38	-1007	3733	-67	-91	36	67	-13	137	369	27837	369	78953112
-22	-1014	3713	-73	-91	39	67	-13	137	370	27936	370	78953113
-5	-1013	3674	-70	-94	40	63	-17	137	371	27988	371	78953114
-4	-996	3677	-71	-99	36	63	-17	137	372	28087	372	78953116
-14	-1006	3719	-68	-107	35	66	-14	136	373	28139	373	78953119
-5	-992	3732	-66	-109	30	66	-14	136	374	28238	374	78953119
11	-997	3738	-60	-118	24	66	-20	142	375	28290	375	78953131
13	-1021	3760	-55	-124	20	66	-20	142	376	28389	376	78953132
16	-1011	3811	-50	-130	20	63	-19	141	377	28441	377	78953133
9	-1043	3817	-51	-138	14	63	-19	141	378	28540	378	78953165
3	-1033	3831	-53	-145	10	62	-22	142	379	28592	379	78953166
-20	-1043	3830	-57	-146	9	62	-22	142	380	28691	380	78953169
-38	-1031	3819	-61	-153	5	67	-19	139	381	28743	381	78953169
-61	-1023	3766	-63	-151	4	67	-19	139	382	28842	382	78953171
-59	-1002	3743	-64	-150	7	63	-21	135	383	28894	383	78953173
-40	-986	3704	-63	-147	8	63	-21	135	384	28993	384	78953173
-74	-976	3671	-59	-145	9	63	-21	133	385	29045	385	78953178
-32	-984	3666	-55	-141	13	63	-21	133	386	29144	386	78953179
-39	-976	3670	-45	-137	14	65	-19	139	387	29196	387	78953182
-33	-993	3707	-37	-136	11	65	-19	139	388	29295	388	78953214
-25	-995	3755	-28	-133	13	62	-20	146	389	29347	389	78953214
-12	-1025	3801	-29	-136	14	62	-20	146	390	29446	390	78953217
13	-1034	3855	-27	-140	11	62	-20	136	391	29498	391	78953217
-1	-1050	3889	-30	-140	12	62	-20	136	392	29597	392	78953219
-7	-1050	3877	-38	-142	11	59	-21	141	393	29649	393	78953221
-19	-1057	3862	-47	-146	8	59	-21	141	394	29748	394	78953221
-6	-1068	3881	-52	-147	5	62	-14	138	395	29800	395	78953230
4	-1030	3872	-57	-150	6	62	-14	138	396	29899	396	78953230
21	-1041	3843	-60	-157	0	65	-21	145	397	29951	397	78953264
14	-1027	3827	-62	-162	-2	65	-21	145	398	30050	398	78953265
-14	-1033	3788	-60	-168	0	67	-19	139	399	30102	399	78953267
-2	-1020	3736	-60	-174	-6	67	-19	139	400	30201	400	78953268
-19	-1040	3763	-60	-173	-9	58	-22	142	401	30253	401	78953269
-3	-1022	3788	-60	-176	-6	58	-22	142	402	30352	402	78953272
-42	-1039	3775	-62	-177	-4	66	-16	140	403	30404	403	78953272
-35	-1035	3790	-65	-171	-4	66	-16	140	404	30503	404	78953274
-44	-1036	3804	-65	-172	0	62	-18	138	405	30555	405	78953277
-28	-1030	3803	-67	-165	1	62	-18	138	406	30654	406	78953278
-2	-1030	3839	-69	-161	2	61	-21	145	407	30706	407	78953312
-20	-1049	3854	-69	-158	6	61	-21	145	408	30805	408	78953313
-4	-1029	3837	-69	-158	8	65	-17	145	409	30857	409	78953315
9	-1025	3823	-71	-159	9	65	-17	145	410	30956	410	78953316
6	-1035	3808	-69	-158	13	68	-20	142	411	31008	411	78953317
19	-1011	3797	-77	-159	8	68	-20	142	412	31107	412	78953319
31	-1026	3772	-72	-161	10	65	-25	137	413	31159	413	78953320
35	-1005	3736	-74	-165	12	65	-25	137	414	31258	414	78953322
31	-994	3713	-72	-166	11	59	-19	139	415	31310	415	78953328
51	-1005	3699	-72	-173	6	59	-19	139	416	31409	416	78953328
38	-1007	3712	-67	-178	8	63	-27	139	417	31461	417	78953338
31	-988	3729	-65	-185	5	63	-27	139	418	31560	418	78953338
38	-1009	3756	-57	-190	1	65	-23	147	419	31612	419	78953341
11	-1007	3765	-54	-193	0	65	-23	147	420	31711	420	78953375
35	-1019	3778	-48	-197	-1	66	-22	140	421	31763	421	78953376
-2	-1013	3803	-49	-194	-4	66	-22	140	422	31862	422	78953379
-14	-1029	3804	-49	-195	1	56	-28	144	423	31914	423	78953379
11	-1028	3798	-51	-190	6	56	-28	144	424	32013	424	78953383
15	-1012	3799	-52	-187	6	61	-21	141	425	32065	425	78953383
11	-1025	3801	-57	-181	7	61	-21	141	426	32164	426	78953383
16	-1016	3788	-56	-184	14	62	-18	134	427	32216	427	78953386
18	-1017	3771	-56	-183	13	62	-18	134	428	32315	428	78953387
27	-1002	3777	-52	-182	12	63	-21	143	429	32367	429	78953398
30	-1009	3725	-49	-180	12	63	-21	143	430	32466	430	78953398
34	-1019	3743	-44	-184	12	60	-16	142	431	32518	431	78953402
41	-1015	3763	-44	-182	12	60	-16	142	432	32617	432	78953435
33	-1028	3780	-41	-186	15	69	-19	143	433	32669	433	78953436
34	-1043	3816	-41	-189	12	69	-19	143	434	32768	434	78953438
55	-1048	3832	-45	-193	9	63	-23	145	435	32820	435	78953439
41	-1061	3821	-49	-192	11	63	-23	145	436	32919	436	78953441
55	-1055	3869	-55	-198	10	61	-21	143	437	32971	437	78953443
19	-1061	3859	-57	-198	6	61	-21	143	438	33070	438	78953444
33	-1040	3855	-58	-203	5	60	-22	142	439	33122	439	78953448
42	-1034	3857	-67	-203	6	60	-22	142	440	33221	440	78953449
37	-1048	3840	-68	-204	3	63	-25	143	441	33273	441	78953452
7	-1045	3801	-71	-203	7	63	-25	143	442	33372	442	78953484
16	-1029	3789	-68	-199	7	66	-30	150	443	33424	443	78953484
28	-1039	3774	-70	-196	6	66	-30	150	444	33523	444	78953487
7	-1007	3770	-67	-195	7	66	-24	142	445	33575	445	78953488
22	-1030	3762	-70	-190	10	66	-24	142	446	33674	446	78953490
-5	-1015	3778	-67	-190	11	66	-24	138	447	33726	447	78953491
27	-1022	3770	-69	-188	8	66	-24	138	448	33825	448	78953492
23	-1018	3774	-67	-190	7	56	-28	134	449	33877	449	78953497
18	-1010	3765	-71	-191	8	56	-28	134	450	33976	450	78953497
18	-1018	3787	-65	-188	8	64	-24	142	451	34028	451	78953531
2	-1036	3798	-68	-188	8	64	-24	142	452	34127	452	78953531
38	-1035	3801	-67	-186	6	66	-24	144	453	34179	453	78953532
28	-1020	3816	-66	-186	8	66	-24	144	454	34278	454	78953535
44	-1034	3797	-68	-189	6	65	-23	147	455	34330	455	78953535
54	-1024	3797	-69	-188	4	65	-23	147	456	34429	456	78953538
37	-1018	3766	-71	-191	-2	63	-21	139	457	34481	457	78953539
39	-1003	3745	-70	-190	0	63	-21	139	458	34580	458	78953541
34	-1010	3755	-67	-195	-2	64	-24	134	459	34632	459	78953547
39	-985	3723	-63	-196	-1	64	-24	134	460	34731	460	78953547
28	-1013	3728	-60	-196	-2	63	-25	143	461	34783	461	78953582
21	-1004	3731	-54	-191	-2	63	-25	143	462	34882	462	78953582
16	-1013	3746	-47	-192	-5	64	-24	142	463	34934	463	78953585
44	-1032	3737	-46	-187	-4	64	-24	142	464	35033	464	78953586
17	-1018	3777	-42	-184	-3	61	-27	143	465	35085	465	78953586
10	-1026	3781	-40	-183	-6	61	-27	143	466	35184	466	78953590
17	-1036	3818	-42	-180	-1	64	-30	146	467	35236	467	78953590
31	-1035	3815	-46	-175	1	64	-30	146	468	35335	468	78953592
18	-1034	3817	-48	-176	0	65	-27	141	469	35387	469	78953595
10	-1034	3811	-50	-174	4	65	-27	141	470	35486	470	78953595
40	-1045	3802	-51	-172	6	68	-28	146	471	35538	471	78953630
22	-1038	3781	-53	-171	2	68	-28	146	472	35637	472	78953630
6	-1029	3789	-52	-169	1	71	-25	147	473	35689	473	78953632
34	-1030	3767	-52	-166	5	71	-25	147	474	35788	474	78953633
29	-1012	3786	-50	-166	4	60	-30	142	475	35840	475	78953634
53	-1043	3792	-51	-166	2	60	-30	142	476	35939	476	78953637
36	-1029	3795	-47	-168	5	63	-27	141	477	35991	477	78953637
33	-1030	3813	-50	-171	4	63	-27	141	478	36090	478	78953640
15	-1046	3807	-50	-170	2	67	-27	139	479	36142	479	78953641
8	-1044	3828	-56	-166	3	67	-27	139	480	36241	480	78953641
26	-1035	3835	-58	-164	2	60	-28	142	481	36293	481	78953677
12	-1038	3813	-61	-156	4	60	-28	142	482	36392	482	78953677
23	-1035	3818	-61	-154	8	60	-28	148	483	36444	483	78953681
9	-1035	3809	-63	-153	9	60	-28	148	484	36543	484	78953681
7	-1042	3810	-66	-146	6	66	-26	136	485	36595	485	78953683
14	-1038	3793	-66	-144	7	66	-26	136	486	36694	486	78953685
13	-1019	3786	-66	-141	8	66	-28	138	487	36746	487	78953685
21	-1020	3777	-67	-139	9	66	-28	138	488	36845	488	78953692
10	-1025	3762	-64	-136	12	62	-38	140	489	36897	489	78953693
9	-1006	3760	-67	-131	15	62	-38	140	490	36996	490	78953696
12	-1017	3740	-61	-128	12	66	-24	144	491	37048	491	78953728
17	-1024	3753	-60	-124	13	66	-24	144	492	37147	492	78953728
25	-1022	3762	-59	-124	14	63	-29	145	493	37199	493	78953731
17	-1019	3777	-58	-123	11	63	-29	145	494	37298	494	78953732
25	-1022	3767	-54	-124	11	62	-30	138	495	37350	495	78953734
33	-1020	3779	-53	-117	13	62	-30	138	496	37449	496	78953735
23	-1025	3769	-50	-116	10	65	-29	143	497	37501	497	78953736
15	-1031	3792	-52	-115	12	65	-29	143	498	37600	498	78953739
-6	-1027	3789	-48	-116	13	62	-34	146	499	37652	499	78953739
-7	-1020	3760	-49	-110	12	62	-34	146	500	37751	500	78953743
13	-1022	3758	-51	-109	11	63	-33	147	501	37803	501	78953776
23	-1015	3742	-48	-103	16	63	-33	147	502	37902	502	78953777
9	-1014	3735	-46	-102	13	65	-29	143	503	37954	503	78953779
-5	-1019	3715	-47	-98	13	65	-29	143	504	38053	504	78953780
10	-1025	3723	-40	-94	17	64	-28	144	505	38105	505	78953782
14	-1016	3758	-38	-87	14	64	-28	144	506	38204	506	78953783
7	-1027	3764	-33	-85	16	65	-33	139	507	38256	507	78953784
17	-1015	3755	-33	-80	19	65	-33	139	508	38355	508	78953788
6	-1031	3758	-32	-77	19	62	-36	142	509	38407	509	78953789
14	-1035	3796	-32	-70	20	62	-36	142	510	38506	510	78953823
-3	-1042	3800	-33	-70	20	65	-33	145	511	38558	511	78953824
1	-1041	3826	-35	-63	23	65	-33	145	512	38657	512	78953826
8	-1047	3813	-35	-62	19	66	-32	150	513	38709	513	78953827
13	-1042	3832	-39	-57	23	66	-32	150	514	38808	514	78953827
11	-1046	3815	-42	-57	22	67	-31	141	515	38860	515	78953856
-1	-1038	3781	-44	-56	21	67	-31	141	516	38959	516	78953856
0	-1032	3776	-43	-52	23	63	-31	135	517	39011	517	78953858
8	-1024	3781	-43	-52	24	63	-31	135	518	39110	518	78953860
18	-1034	3793	-43	-50	21	66	-34	148	519	39162	519	78953861
18	-1039	3787	-43	-44	23	66	-34	148	520	39261	520	78953863
-8	-1037	3783	-42	-39	26	63	-29	143	521	39313	521	78953864
-3	-1038	3791	-48	-31	26	63	-29	143	522	39412	522	78953869
26	-1026	3802	-47	-30	27	59	-33	143	523	39464	523	78953869
0	-1025	3811	-48	-26	30	59	-33	143	524	39563	524	78953870
-14	-1023	3795	-47	-21	27	64	-32	146	525	39615	525	78953874
4	-1033	3803	-50	-15	28	64	-32	146	526	39714	526	78953875
-22	-1037	3796	-51	-12	31	69	-29	139	527	39766	527	78953878
-1	-1022	3793	-51	-9	34	69	-29	139	528	39865	528	78953912
4	-1025	3797	-50	-7	33	63	-33	145	529	39917	529	78953913
13	-1018	3788	-53	1	33	63	-33	145	530	40016	530	78953916
21	-1027	3763	-50	2	34	68	-34	152	531	40068	531	78953916
5	-1010	3756	-50	4	32	68	-34	152	532	40167	532	78953918
9	-1008	3755	-46	9	37	61	-29	143	533	40219	533	78953920
16	-1007	3738	-46	11	37	61	-29	143	534	40318	534	78953920
10	-1003	3739	-41	15	36	66	-32	142	535	40370	535	78953923
13	-1009	3743	-40	19	35	66	-32	142	536	40469	536	78953923
5	-1001	3752	-36	19	34	69	-35	143	537	40521	537	78953960
16	-999	3768	-36	19	34	69	-35	143	538	40620	538	78953960
17	-1008	3776	-32	21	35	69	-35	145	539	40672	539	78953962
8	-1008	3790	-33	27	32	69	-35	145	540	40771	540	78953964
11	-1038	3774	-31	32	33	68	-30	142	541	40823	541	78953965
9	-1023	3770	-32	34	35	68	-30	142	542	40922	542	78953967
-10	-1021	3760	-30	40	36	64	-32	142	543	40974	543	78953971
0	-1025	3780	-31	40	38	64	-32	142	544	41073	544	78953971
9	-1028	3775	-31	45	39	66	-30	140	545	41125	545	78953973
10	-1025	3758	-29	49	40	66	-30	140	546	41224	546	78953976
8	-1021	3795	-26	54	39	67	-35	145	547	41276	547	78953985
8	-1013	3777	-26	55	41	67	-35	145	548	41375	548	78953986
11	-1025	3768	-25	59	42	63	-31	147	549	41427	549	78953987
10	-1025	3771	-25	62	43	63	-31	147	550	41526	550	78954019
22	-1034	3773	-22	64	42	64	-30	144	551	41578	551	78954020
23	-1036	3804	-22	70	43	64	-30	144	552	41677	552	78954023
16	-1041	3780	-23	69	44	65	-35	139	553	41729	553	78954023
21	-1047	3789	-26	73	45	65	-35	139	554	41828	554	78954027
21	-1055	3846	-26	73	46	67	-29	143	555	41880	555	78954027
30	-1040	3810	-29	75	47	67	-29	143	556	41979	556	78954027
15	-1038	3802	-30	78	45	64	-26	136	557	42031	557	78954032
-3	-1038	3808	-32	80	47	64	-26	136	558	42130	558	78954032
17	-1045	3793	-33	85	46	65	-37	145	559	42182	559	78954067
28	-1037	3802	-36	88	49	65	-37	145	560	42281	560	78954067
16	-1027	3804	-35	89	49	64	-28	144	561	42333	561	78954069
33	-1047	3767	-35	94	48	64	-28	144	562	42432	562	78954070
19	-1038	3760	-35	96	48	67	-29	141	563	42484	563	78954070
20	-1028	3781	-37	99	50	67	-29	141	564	42583	564	78954074
30	-1035	3775	-38	100	51	65	-27	145	565	42635	565	78954074
17	-1017	3773	-38	103	49	65	-27	145	566	42734	566	78954076
14	-1021	3776	-37	104	51	66	-34	138	567	42786	567	78954083
20	-1033	3786	-35	110	51	66	-34	138	568	42885	568	78954083
12	-1031	3797	-35	110	50	65	-29	141	569	42937	569	78954093
27	-1020	3790	-37	111	48	65	-29	141	570	43036	570	78954094
20	-1026	3768	-36	116	49	65	-25	147	571	43088	571	78954097
24	-1025	3786	-34	116	52	65	-25	147	572	43187	572	78954131
38	-1025	3768	-34	116	51	60	-34	146	573	43239	573	78954132
33	-1016	3775	-34	117	51	60	-34	146	574	43338	574	78954134
44	-1012	3763	-33	120	51	63	-27	145	575	43390	575	78954135
33	-1020	3772	-30	122	52	63	-27	145	576	43489	576	78954137
28	-1019	3774	-29	120	53	65	-33	147	577	43541	577	78954138
32	-1013	3762	-26	123	50	65	-33	147	578	43640	578	78954139
26	-1026	3769	-26	124	54	62	-22	138	579	43692	579	78954142
34	-1035	3770	-24	126	55	62	-22	138	580	43791	580	78954142
35	-1019	3788	-23	126	51	63	-29	143	581	43843	581	78954144
45	-1024	3790	-24	126	52	63	-29	143	582	43942	582	78954153
26	-1026	3779	-18	124	53	65	-31	141	583	43994	583	78954153
31	-1017	3776	-20	127	52	65	-31	141	584	44093	584	78954190
15	-1033	3786	-19	129	53	68	-24	140	585	44145	585	78954190
27	-1022	3794	-22	132	56	68	-24	140	586	44244	586	78954193
27	-1038	3769	-21	133	57	68	-28	144	587	44296	587	78954194
38	-1007	3786	-26	134	56	68	-28	144	588	44395	588	78954196
31	-1037	3773	-19	136	56	66	-28	136	589	44447	589	78954197
40	-1026	3795	-20	138	56	66	-28	136	590	44546	590	78954197
29	-1039	3808	-21	137	53	66	-26	138	591	44598	591	78954202
27	-1027	3810	-22	140	56	66	-26	138	592	44697	592	78954202
36	-1029	3804	-19	138	57	57	-27	147	593	44749	593	78954205
44	-1034	3819	-20	138	53	57	-27	147	594	44848	594	78954239
39	-1039	3819	-25	137	55	63	-25	143	595	44900	595	78954241
45	-1044	3811	-25	139	55	63	-25	143	596	44999	596	78954243
41	-1048	3826	-24	139	55	61	-25	143	597	45051	597	78954246
13	-1035	3816	-24	138	54	61	-25	143	598	45150	598	78954248
40	-1051	3811	-27	140	57	63	-25	143	599	45202	599	78954250
43	-1044	3815	-30	139	54	63	-25	143	600	45301	600	78954252
33	-1042	3810	-34	137	55	63	-27	141	601	45353	601	78954253
40	-1055	3795	-34	138	54	63	-27	141	602	45452	602	78954254
29	-1036	3794	-32	140	55	61	-25	137	603	45504	603	78954255
33	-1035	3775	-34	138	54	61	-25	137	604	45603	604	78954288
48	-1046	3779	-36	137	55	64	-28	144	605	45655	605	78954288
23	-1015	3791	-37	139	54	64	-28	144	606	45754	606	78954291
42	-1043	3787	-34	138	51	65	-25	145	607	45806	607	78954291
30	-1032	3785	-34	137	54	65	-25	145	608	45905	608	78954293
51	-1040	3769	-33	136	53	65	-19	141	609	45957	609	78954295
68	-1033	3756	-36	135	50	65	-19	141	610	46056	610	78954296
73	-1008	3657	-35	134	50	60	-26	138	611	46108	611	78954303
81	-1008	3639	-48	134	49	60	-26	138	612	46207	612	78954304
48	-1005	3709	-46	124	48	66	-30	142	613	46259	613	78954312
29	-1002	3813	-35	128	46	66	-30	142	614	46358	614	78954322
54	-1001	3861	-25	119	42	63	-25	145	615	46410	615	78954322
22	-1031	3856	-5	118	36	63	-25	145	616	46509	616	78954349
3	-1042	3842	10	117	38	62	-18	142	617	46561	617	78954349
33	-1072	3833	9	120	42	62	-18	142	618	46660	618	78954353
21	-1050	3836	-5	125	44	70	-24	142	619	46712	619	78954353
49	-1065	3836	-28	128	52	70	-24	142	620	46811	620	78954355
40	-1040	3789	-40	133	52	66	-20	142	621	46863	621	78954357
64	-1017	3719	-45	130	50	66	-20	142	622	46962	622	78954357
53	-1000	3678	-43	125	52	61	-23	137	623	47014	623	78954361
58	-972	3657	-34	128	49	61	-23	137	624	47113	624	78954362
54	-958	3642	-26	118	47	67	-21	145	625	47165	625	78954365
45	-995	3681	-17	117	45	67	-21	145	626	47264	626	78954374
69	-1038	3758	-4	111	46	65	-21	143	627	47316	627	78954375
54	-1050	3800	12	109	42	65	-21	143	628	47415	628	78954410
68	-1074	3845	12	109	42	66	-18	144	629	47467	629	78954411
48	-1119	3906	-3	104	46	66	-18	144	630	47566	630	78954412
61	-1115	3971	-18	106	46	64	-18	144	631	47618	631	78954413
77	-1093	3957	-43	100	44	64	-18	144	632	47717	632	78954414
69	-1088	3944	-59	96	44	57	-15	137	633	47769	633	78954417
87	-1060	3932	-70	91	42	57	-15	137	634	47868	634	78954417
50	-1030	3859	-70	87	41	66	-16	142	635	47920	635	78954419
33	-1032	3768	-67	82	40	66	-16	142	636	48019	636	78954425
40	-1015	3726	-61	82	44	73	-23	141	637	48071	637	78954425
23	-992	3695	-53	86	44	73	-23	141	638	48170	638	78954460
45	-1016	3668	-48	84	46	63	-25	139	639	48222	639	78954460
50	-1017	3655	-41	85	49	63	-25	139	640	48321	640	78954463
57	-1014	3693	-37	83	44	69	-21	147	641	48373	641	78954464
61	-1021	3730	-38	78	46	69	-21	147	642	48472	642	78954464
70	-1017	3742	-43	75	50	61	-19	139	643	48524	643	78954467
70	-1022	3765	-50	69	45	61	-19	139	644	48623	644	78954467
55	-1023	3814	-46	68	45	61	-23	143	645	48675	645	78954496
64	-1031	3835	-45	68	44	61	-23	143	646	48774	646	78954496
51	-1016	3842	-38	66	42	66	-18	142	647	48826	647	78954498
67	-1017	3845	-36	64	43	66	-18	142	648	48925	648	78954500
73	-1045	3796	-34	60	47	66	-20	140	649	48977	649	78954500
72	-1021	3781	-37	57	44	66	-20	140	650	49076	650	78954504
81	-1023	3751	-39	51	41	66	-18	140	651	49128	651	78954505
72	-1015	3697	-40	45	43	66	-18	140	652	49227	652	78954507
75	-1006	3682	-42	38	36	64	-20	140	653	49279	653	78954509
89	-1002	3652	-44	33	34	64	-20	140	654	49378	654	78954510
63	-983	3659	-38	27	34	69	-19	139	655	49430	655	78954521
59	-991	3659	-29	25	32	69	-19	139	656	49529	656	78954522
52	-1000	3703	-16	23	32	62	-18	142	657	49581	657	78954524
53	-1014	3756	-7	21	35	62	-18	142	658	49680	658	78954556
61	-1028	3800	-2	18	33	63	-21	141	659	49732	659	78954556
79	-1051	3842	0	18	28	63	-21	141	660	49831	660	78954559
62	-1087	3870	-2	15	30	62	-18	142	661	49883	661	78954560
65	-1086	3930	-11	13	33	62	-18	142	662	49982	662	78954562
68	-1085	3906	-25	9	33	64	-18	140	663	50034	663	78954563
63	-1075	3889	-35	12	34	64	-18	140	664	50133	664	78954563
63	-1060	3830	-45	11	36	66	-18	142	665	50185	665	78954568
68	-1039	3820	-52	5	33	66	-18	142	666	50284	666	78954569
76	-1028	3776	-51	2	32	65	-21	143	667	50336	667	78954603
69	-1021	3736	-48	0	34	65	-21	143	668	50435	668	78954604
68	-1017	3738	-39	-7	31	66	-18	144	669	50487	669	78954604
83	-1032	3759	-38	-8	30	66	-18	144	670	50586	670	78954607
72	-1037	3771	-31	-14	28	60	-20	142	671	50638	671	78954607
69	-1045	3800	-30	-22	24	60	-20	142	672	50737	672	78954611
60	-1064	3813	-34	-29	24	65	-19	137	673	50789	673	78954611
65	-1063	3869	-42	-32	24	65	-19	137	674	50888	674	78954613
41	-1080	3871	-54	-37	23	64	-14	138	675	50940	675	78954619
61	-1048	3851	-58	-40	22	64	-14	138	676	51039	676	78954620
68	-1058	3870	-64	-39	25	65	-21	147	677	51091	677	78954630
50	-1037	3820	-69	-39	25	65	-21	147	678	51190	678	78954631
69	-1037	3796	-72	-42	23	60	-18	146	679	51242	679	78954634
51	-1027	3753	-69	-42	23	60	-18	146	680	51341	680	78954644
56	-1035	3734	-68	-44	24	61	-21	143	681	51393	681	78954645
68	-1001	3730	-66	-47	23	61	-21	143	682	51492	682	78954679
68	-1012	3692	-57	-50	26	61	-21	145	683	51544	683	78954679
57	-1011	3686	-56	-52	24	61	-21	145	684	51643	684	78954681
68	-997	3702	-55	-58	20	64	-22	146	685	51695	685	78954682
54	-993	3687	-53	-61	20	64	-22	146	686	51794	686	78954682
77	-1000	3741	-53	-71	20	63	-19	137	687	51846	687	78954686
68	-1014	3753	-52	-74	17	63	-19	137	688	51945	688	78954686
80	-1012	3781	-44	-78	18	63	-19	141	689	51997	689	78954688
63	-1015	3791	-41	-81	16	63	-19	141	690	52096	690	78954691
67	-1030	3802	-39	-86	13	64	-24	144	691	52148	691	78954691
68	-1048	3815	-38	-90	13	64	-24	144	692	52247	692	78954725
67	-1040	3813	-37	-91	13	61	-23	147	693	52299	693	78954726
79	-1046	3781	-43	-93	11	61	-23	147	694	52398	694	78954728
72	-1033	3772	-44	-97	11	65	-21	143	695	52450	695	78954729
66	-1026	3729	-47	-102	13	65	-21	143	696	52549	696	78954729
58	-1026	3729	-46	-105	9	65	-15	137	697	52601	697	78954733
53	-1006	3746	-44	-110	11	65	-15	137	698	52700	698	78954733
47	-1012	3726	-42	-111	11	64	-20	136	699	52752	699	78954738
37	-1019	3733	-39	-108	12	64	-20	136	700	52851	700	78954738
52	-1022	3751	-30	-108	13	64	-22	140	701	52903	701	78954741
59	-1040	3795	-28	-115	13	64	-22	140	702	53002	702	78954774
55	-1042	3817	-24	-117	11	57	-25	139	703	53054	703	78954774
60	-1041	3843	-25	-119	10	57	-25	139	704	53153	704	78954778
58	-1075	3874	-30	-122	13	68	-22	144	705	53205	705	78954778
69	-1057	3898	-40	-125	11	68	-22	144	706	53304	706	78954780
46	-1065	3854	-48	-128	9	65	-23	139	707	53356	707	78954782
56	-1065	3869	-57	-129	12	65	-23	139	708	53455	708	78954782
67	-1053	3854	-59	-134	12	63	-19	143	709	53507	709	78954787
41	-1053	3826	-63	-135	11	63	-19	143	710	53606	710	78954787
55	-1025	3793	-64	-137	11	60	-22	142	711	53658	711	78954790
60	-1028	3776	-64	-140	13	60	-22	142	712	53757	712	78954823
62	-1031	3779	-63	-143	7	60	-22	146	713	53809	713	78954823
65	-1022	3777	-63	-147	8	60	-22	146	714	53908	714	78954827
54	-1031	3742	-59	-150	9	63	-25	135	715	53960	715	78954827
60	-1024	3786	-56	-151	4	63	-25	135	716	54059	716	78954829
56	-1045	3784	-59	-153	4	64	-18	136	717	54111	717	78954830
39	-1054	3787	-64	-154	6	64	-18	136	718	54210	718	78954831
59	-1039	3832	-68	-155	6	65	-19	139	719	54262	719	78954838
37	-1040	3804	-70	-153	6	65	-19	139	720	54361	720	78954839
57	-1027	3838	-67	-155	6	64	-22	148	721	54413	721	78954841
54	-1020	3827	-68	-156	5	64	-22	148	722	54512	722	78954873
51	-1005	3806	-68	-157	7	67	-25	145	723	54564	723	78954874
62	-1023	3778	-71	-156	5	67	-25	145	724	54664	724	78954877
45	-1017	3745	-68	-158	5	66	-26	142	725	54715	725	78954878
51	-1008	3735	-67	-164	6	66	-26	142	726	54814	726	78954880
55	-1005	3706	-61	-166	6	62	-20	138	727	54866	727	78954885
39	-996	3740	-59	-168	3	62	-20	138	728	54965	728	78954886
60	-1003	3726	-57	-168	1	64	-24	140	729	55017	729	78954886
51	-1007	3722	-56	-175	4	64	-24	140	730	55116	730	78954887
52	-1011	3732	-51	-176	0	61	-19	145	731	55168	731	78954921
46	-1013	3780	-46	-175	1	61	-19	145	732	55267	732	78954921
35	-1012	3779	-41	-176	0	68	-20	142	733	55319	733	78954923
49	-1014	3789	-39	-179	0	68	-20	142	734	55418	734	78954924
23	-1034	3780	-39	-180	-4	64	-20	136	735	55470	735	78954925
39	-1039	3787	-38	-181	-2	64	-20	136	736	55569	736	78954928
24	-1041	3813	-41	-180	-2	67	-23	139	737	55621	737	78954928
42	-1029	3817	-48	-179	-4	67	-23	139	738	55720	738	78954930
53	-1037	3786	-48	-180	1	63	-21	143	739	55772	739	78954937
38	-1026	3764	-49	-178	2	63	-21	143	740	55871	740	78954937
44	-1031	3764	-49	-181	1	68	-24	144	741	55923	741	78954947
38	-1020	3759	-48	-180	2	68	-24	144	742	56022	742	78954947
45	-1042	3744	-48	-181	1	63	-27	143	743	56074	743	78954950
45	-1024	3784	-45	-177	-1	63	-27	143	744	56173	744	78954984
44	-1046	3798	-43	-181	2	59	-27	145	745	56225	745	78954985
25	-1041	3816	-41	-182	2	59	-27	145	746	56324	746	78954988
46	-1052	3824	-43	-186	1	63	-25	147	747	56376	747	78954988
63	-1066	3829	-47	-179	1	63	-25	147	748	56475	748	78954990
23	-1057	3850	-52	-179	4	62	-28	136	749	56527	749	78954992
38	-1043	3826	-56	-182	0	62	-28	136	750	56626	750	78954992
37	-1038	3839	-61	-183	0	69	-25	139	751	56678	751	78954995
39	-1029	3833	-67	-182	2	69	-25	139	752	56777	752	78954996
29	-1059	3801	-69	-180	2	63	-27	147	753	56829	753	78954999
20	-1031	3781	-69	-180	3	63	-27	147	754	56928	754	78955010
42	-1036	3770	-70	-183	5	64	-24	146	755	56980	755	78955011
2	-1034	3773	-68	-179	4	64	-24	146	756	57079	756	78955045
16	-1017	3760	-67	-178	2	65	-25	145	757	57131	757	78955046
25	-1019	3770	-67	-177	6	65	-25	145	758	57230	758	78955048
22	-1025	3763	-64	-176	5	64	-30	144	759	57282	759	78955049
22	-1011	3768	-66	-173	2	64	-30	144	760	57381	760	78955051
6	-1038	3775	-64	-172	2	63	-21	139	761	57433	761	78955052
17	-1020	3764	-63	-172	4	63	-21	139	762	57532	762	78955053
25	-1025	3787	-62	-172	1	62	-30	138	763	57584	763	78955056
33	-1031	3782	-63	-168	7	62	-30	138	764	57683	764	78955056
23	-1016	3781	-61	-171	5	68	-30	144	765	57735	765	78955060
16	-1018	3772	-59	-169	3	68	-30	144	766	57834	766	78955092
25	-1028	3762	-56	-167	7	61	-31	149	767	57886	767	78955093
12	-1035	3762	-58	-164	8	61	-31	149	768	57985	768	78955096
23	-1009	3727	-56	-164	4	62	-28	140	769	58037	769	78955096
25	-1013	3740	-54	-163	2	62	-28	140	770	58136	770	78955098
22	-1015	3746	-50	-161	5	63	-25	141	771	58188	771	78955100
11	-1016	3728	-50	-162	3	63	-25	141	772	58287	772	78955100
20	-1015	3754	-46	-162	6	65	-29	139	773	58339	773	78955105
9	-1010	3747	-46	-159	6	65	-29	139	774	58438	774	78955106
11	-1018	3766	-43	-159	2	60	-30	146	775	58490	775	78955133
10	-1010	3779	-41	-158	5	60	-30	146	776	58589	776	78955134
12	-1025	3770	-38	-154	8	66	-30	142	777	58641	777	78955135
20	-1035	3806	-38	-151	7	66	-30	142	778	58740	778	78955138
5	-1047	3802	-37	-152	5	64	-28	140	779	58792	779	78955138
15	-1039	3808	-40	-146	9	64	-28	140	780	58891	780	78955140
18	-1047	3796	-40	-144	8	68	-30	148	781	58943	781	78955143
13	-1027	3821	-44	-142	9	68	-30	148	782	59042	782	78955143
8	-1045	3786	-45	-136	9	65	-27	141	783	59094	783	78955179
2	-1030	3794	-49	-136	8	65	-27	141	784	59193	784	78955180
18	-1045	3801	-47	-133	9	67	-35	145	785	59245	785	78955182
-3	-1034	3808	-49	-130	11	67	-35	145	786	59344	786	78955183
14	-1031	3788	-47	-128	13	65	-27	141	787	59396	787	78955183
20	-1034	3807	-49	-126	10	65	-27	141	788	59495	788	78955189
27	-1051	3815	-47	-125	14	66	-32	142	789	59547	789	78955191
19	-1040	3790	-49	-123	11	66	-32	142	790	59646	790	78955192
13	-1038	3807	-49	-123	10	64	-32	144	791	59698	791	78955192
17	-1044	3800	-54	-116	13	64	-32	144	792	59797	792	78955194
21	-1043	3833	-54	-113	14	63	-33	141	793	59849	793	78955228
10	-1043	3814	-59	-112	11	63	-33	141	794	59948	794	78955229
7	-1041	3811	-59	-108	14	62	-30	146	795	60000	795	78955231
-6	-1033	3793	-62	-104	18	62	-30	146	796	60099	796	78955232
8	-1033	3775	-58	-103	15	60	-24	140	797	60151	797	78955234
-7	-1031	3779	-63	-98	18	60	-24	140	798	60250	798	78955235
7	-1036	3784	-60	-97	17	63	-33	139	799	60302	799	78955236
11	-1017	3757	-62	-91	15	63	-33	139	800	60401	800	78955239
20	-1016	3764	-59	-89	19	60	-32	144	801	60453	801	78955240
25	-1013	3739	-58	-84	21	60	-32	144	802	60552	802	78955243
19	-1009	3751	-53	-84	17	64	-36	146	803	60604	803	78955254
11	-1007	3749	-53	-81	16	64	-36	146	804	60703	804	78955255
-1	-1028	3749	-49	-78	21	65	-33	147	805	60755	805	78955288
15	-1012	3774	-50	-77	18	65	-33	147	806	60854	806	78955288
13	-1008	3752	-47	-74	17	71	-35	143	807	60906	807	78955290
6	-1024	3765	-46	-70	20	71	-35	143	808	61005	808	78955292
3	-1022	3783	-42	-70	18	68	-26	144	809	61057	809	78955292
5	-1028	3759	-40	-66	16	68	-26	144	810	61156	810	78955295
6	-1021	3768	-37	-63	20	66	-32	144	811	61208	811	78955296
9	-1006	3764	-41	-60	19	66	-32	144	812	61307	812	78955299
10	-1029	3751	-37	-58	19	69	-33	143	813	61359	813	78955299
9	-1016	3780	-36	-51	22	69	-33	143	814	61458	814	78955303
11	-1034	3761	-36	-50	24	64	-34	142	815	61510	815	78955335
12	-1030	3751	-36	-48	22	64	-34	142	816	61610	816	78955336
13	-1025	3745	-31	-45	24	67	-35	145	817	61662	817	78955339
10	-1024	3780	-33	-36	24	67	-35	145	818	61761	818	78955339
1	-1024	3776	-32	-37	24	67	-27	143	819	61813	819	78955341
-1	-1032	3788	-30	-31	27	67	-27	143	820	61912	820	78955343
13	-1019	3810	-28	-27	28	63	-29	141	821	61964	821	78955343
12	-1039	3789	-31	-26	25	63	-29	141	822	62063	822	78955348
11	-1039	3813	-30	-21	27	62	-32	146	823	62115	823	78955348
16	-1044	3820	-36	-19	31	62	-32	146	824	62214	824	78955351
-6	-1037	3829	-36	-14	28	63	-31	153	825	62266	825	78955384
7	-1047	3802	-37	-10	32	63	-31	153	826	62365	826	78955385
3	-1045	3821	-40	-7	34	64	-34	142	827	62417	827	78955388
-2	-1033	3778	-40	-4	34	64	-34	142	828	62516	828	78955388
21	-1045	3775	-40	0	30	66	-34	144	829	62568	829	78955390
19	-1041	3764	-41	0	34	66	-34	144	830	62667	830	78955392
12	-1032	3796	-43	4	34	66	-36	136	831	62719	831	78955392
14	-1028	3794	-45	11	34	66	-36	136	832	62818	832	78955397
18	-1031	3792	-43	9	36	64	-30	144	833	62870	833	78955397
8	-1027	3793	-45	14	36	64	-30	144	834	62969	834	78955400
11	-1024	3791	-45	21	32	71	-29	145	835	63021	835	78955434
6	-1023	3766	-46	19	38	71	-29	145	836	63120	836	78955435
11	-1033	3783	-45	23	36	65	-33	145	837	63172	837	78955438
5	-1024	3793	-46	28	34	65	-33	145	838	63271	838	78955438
3	-1032	3795	-46	34	37	61	-31	147	839	63323	839	78955441
-11	-1026	3786	-47	36	38	61	-31	147	840	63422	840	78955442
7	-1020	3764	-44	37	33	68	-28	140	841	63474	841	78955445
14	-1032	3771	-46	39	36	68	-28	140	842	63573	842	78955446
5	-1015	3754	-44	44	39	67	-27	145	843	63625	843	78955447
11	-1012	3748	-43	46	37	67	-27	145	844	63724	844	78955481
32	-1008	3735	-40	48	38	64	-34	146	845	63776	845	78955481
19	-1015	3751	-39	52	41	64	-34	146	846	63875	846	78955483
23	-1004	3741	-36	52	41	61	-33	145	847	63927	847	78955484
18	-1029	3769	-31	55	41	61	-33	145	848	64026	848	78955485
29	-1019	3763	-32	59	42	68	-32	142	849	64078	849	78955488
15	-1017	3772	-33	59	40	68	-32	142	850	64177	850	78955488
24	-1007	3777	-28	61	38	68	-28	146	851	64229	851	78955490
18	-1040	3772	-28	65	44	68	-28	146	852	64328	852	78955497
15	-1018	3785	-25	65	41	65	-27	147	853	64380	853	78955498
23	-1041	3776	-25	70	42	65	-27	147	854	64479	854	78955532
31	-1015	3784	-25	76	45	66	-36	146	855	64531	855	78955533
18	-1040	3771	-24	76	45	66	-36	146	856	64630	856	78955535
20	-1030	3765	-24	77	42	68	-32	148	857	64682	857	78955536
17	-1034	3779	-27	82	46	68	-32	148	858	64781	858	78955536
6	-1018	3790	-23	83	45	63	-23	137	859	64833	859	78955540
15	-1033	3770	-25	83	45	63	-23	137	860	64932	860	78955540
29	-1050	3790	-23	84	49	65	-31	139	861	64984	861	78955542
27	-1036	3776	-25	89	47	65	-31	139	862	65083	862	78955545
15	-1039	3783	-26	92	46	66	-32	146	863	65135	863	78955546
21	-1039	3809	-27	92	49	66	-32	146	864	65234	864	78955580
15	-1039	3818	-26	96	49	66	-32	152	865	65286	865	78955580
12	-1032	3835	-26	99	50	66	-32	152	866	65385	866	78955584
22	-1040	3813	-29	99	50	63	-27	141	867	65437	867	78955585
37	-1050	3800	-31	99	50	63	-27	141	868	65536	868	78955586
43	-1030	3808	-31	99	49	60	-34	140	869	65588	869	78955588
25	-1033	3788	-34	104	49	60	-34	140	870	65687	870	78955590
22	-1053	3794	-35	107	48	60	-24	138	871	65739	871	78955592
27	-1024	3791	-34	108	49	60	-24	138	872	65838	872	78955593
30	-1040	3797	-34	110	50	61	-29	145	873	65890	873	78955596
28	-1041	3768	-38	111	52	61	-29	145	874	65989	874	78955629
22	-1029	3764	-39	112	48	65	-31	147	875	66041	875	78955629
32	-1011	3807	-38	113	50	65	-31	147	876	66140	876	78955632
38	-1047	3759	-37	113	51	67	-27	147	877	66192	877	78955632
21	-1023	3772	-37	116	50	67	-27	147	878	66291	878	78955635
22	-1013	3782	-37	117	50	64	-24	140	879	66343	879	78955636
39	-1015	3765	-37	118	54	64	-24	140	880	66442	880	78955636
42	-1015	3767	-35	119	52	62	-28	142	881	66494	881	78955641
34	-1027	3752	-35	123	51	62	-28	142	882	66593	882	78955641
37	-1028	3766	-34	123	50	66	-28	144	883	66645	883	78955645
25	-1027	3747	-35	121	52	66	-28	144	884	66744	884	78955677
53	-1025	3766	-30	122	49	58	-26	146	885	66796	885	78955677
36	-1024	3752	-30	124	52	58	-26	146	886	66895	886	78955681
29	-1012	3749	-29	122	52	73	-29	145	887	66947	887	78955681
28	-1018	3756	-27	123	49	73	-29	145	888	67046	888	78955683
47	-1009	3759	-25	126	48	64	-30	138	889	67098	889	78955685
27	-1021	3758	-25	127	50	64	-30	138	890	67197	890	78955685
30	-1024	3773	-24	127	50	64	-30	142	891	67249	891	78955692
28	-1025	3784	-23	127	50	64	-30	142	892	67348	892	78955692
36	-1014	3781	-21	128	50	68	-26	148	893	67400	893	78955695
32	-1034	3782	-22	128	50	68	-26	148	894	67499	894	78955727
36	-1020	3779	-23	125	51	65	-23	143	895	67551	895	78955728
31	-1027	3796	-24	126	53	65	-23	143	896	67650	896	78955731
47	-1036	3788	-21	127	50	63	-25	143	897	67702	897	78955731
26	-1035	3780	-21	125	50	63	-25	143	898	67801	898	78955733
36	-1043	3787	-20	127	52	66	-26	140	899	67853	899	78955735
43	-1024	3806	-23	125	49	66	-26	140	900	67952	900	78955735
47	-1027	3802	-25	125	48	65	-23	139	901	68004	901	78955740
31	-1035	3816	-24	125	51	65	-23	139	902	68103	902	78955741
25	-1036	3796	-26	126	51	64	-30	146	903	68155	903	78955774
57	-1038	3778	-26	128	48	64	-30	146	904	68254	904	78955775
45	-1028	3785	-27	126	54	71	-19	145	905	68306	905	78955775
45	-1021	3809	-28	125	51	71	-19	145	906	68405	906	78955780
58	-1046	3796	-29	123	50	62	-20	142	907	68457	907	78955780
39	-1036	3789	-31	125	51	62	-20	142	908	68556	908	78955781
52	-1039	3836	-31	123	53	65	-29	143	909	68608	909	78955782
31	-1052	3798	-31	120	51	65	-29	143	910	68707	910	78955783
61	-1030	3803	-32	118	54	61	-25	147	911	68759	911	78955791
36	-1049	3792	-35	121	53	61	-25	147	912	68858	912	78955792
68	-1050	3801	-32	117	50	62	-26	146	913	68910	913	78955801
52	-1033	3796	-39	116	51	62	-26	146	914	69009	914	78955802
47	-1019	3773	-35	117	51	63	-23	145	915	69061	915	78955805
46	-1030	3795	-37	114	47	63	-23	145	916	69160	916	78955815
31	-1042	3763	-37	111	50	60	-20	148	917	69212	917	78955816
42	-1035	3762	-36	112	52	60	-20	148	918	69311	918	78955850
49	-1029	3776	-36	108	49	61	-27	143	919	69363	919	78955852
45	-1033	3775	-38	109	51	61	-27	143	920	69462	920	78955857
36	-1025	3779	-35	106	50	64	-22	144	921	69514	921	78955857
68	-1033	3770	-37	106	48	64	-22	144	922	69613	922	78955860
45	-1025	3773	-33	104	49	60	-18	138	923	69665	923	78955861
59	-1023	3786	-34	102	49	60	-18	138	924	69764	924	78955861
61	-1007	3770	-32	97	46	72	-26	132	925	69816	925	78955861
71	-1027	3765	-36	97	45	72	-26	132	926	69915	926	78955862
35	-1028	3783	-31	96	46	64	-26	148	927	69967	927	78955863
31	-1029	3783	-32	96	44	64	-26	148	928	70066	928	78955897
55	-1029	3771	-29	92	44	70	-24	152	929	70118	929	78955897
59	-1022	3783	-29	89	47	70	-24	152	930	70217	930	78955901
66	-1027	3775	-28	85	43	66	-24	142	931	70269	931	78955901
74	-1023	3787	-30	86	42	66	-24	142	932	70368	932	78955901
53	-1022	3783	-28	84	43	60	-22	142	933	70420	933	78955907
56	-1015	3794	-29	81	43	60	-22	142	934	70519	934	78955907
47	-1036	3768	-26	80	40	65	-15	135	935	70571	935	78955911
60	-1025	3789	-27	77	41	65	-15	135	936	70670	936	78955911
60	-1034	3781	-27	74	41	64	-20	142	937	70722	937	78955915
57	-1033	3797	-28	69	40	64	-20	142	938	70821	938	78955947
68	-1035	3781	-26	67	41	59	-25	141	939	70873	939	78955947
81	-1047	3772	-29	67	41	59	-25	141	940	70972	940	78955951
61	-1028	3791	-30	63	38	59	-23	145	941	71024	941	78955951
50	-1038	3827	-30	61	42	59	-23	145	942	71123	942	78955953
51	-1036	3774	-29	61	41	69	-13	139	943	71175	943	78955955
62	-1033	3796	-31	60	39	69	-13	139	944	71274	944	78955955
60	-1038	3767	-35	56	39	65	-21	139	945	71326	945	78955958
61	-1035	3799	-35	52	40	65	-21	139	946	71425	946	78955959
58	-1047	3810	-34	48	39	59	-21	141	947	71477	947	78955962
76	-1043	3804	-38	44	38	59	-21	141	948	71576	948	78955995
53	-1044	3777	-39	41	38	65	-21	149	949	71628	949	78955995
56	-1034	3771	-37	39	36	65	-21	149	950	71727	950	78955998
65	-1042	3783	-41	35	35	65	-19	145	951	71779	951	78955999
49	-1026	3791	-40	32	39	65	-19	145	952	71878	952	78956001
58	-1045	3803	-41	33	35	59	-15	141	953	71930	953	78956002
80	-1031	3797	-46	26	33	59	-15	141	954	72029	954	78956003
70	-1025	3781	-43	26	35	64	-20	138	955	72081	955	78956010
61	-1032	3796	-44	25	35	64	-20	138	956	72180	956	78956010
66	-1019	3792	-46	19	33	70	-24	142	957	72232	957	78956012
57	-1023	3793	-47	20	35	70	-24	142	958	72331	958	78956045
72	-1019	3786	-43	15	33	59	-19	137	959	72383	959	78956046
77	-1025	3779	-43	11	32	59	-19	137	960	72482	960	78956049
60	-1028	3781	-42	7	34	58	-20	138	961	72534	961	78956049
57	-1024	3773	-41	5	32	58	-20	138	962	72633	962	78956052
69	-1030	3767	-42	-1	30	65	-23	135	963	72685	963	78956053
69	-1015	3781	-42	-3	32	65	-23	135	964	72784	964	78956055
57	-1034	3788	-41	-6	31	64	-16	142	965	72836	965	78956057
75	-1019	3775	-39	-9	25	64	-16	142	966	72935	966	78956059
55	-1027	3773	-38	-13	25	65	-23	147	967	72987	967	78956091
68	-1022	3779	-40	-17	28	65	-23	147	968	73086	968	78956092
74	-1026	3793	-40	-21	28	66	-18	144	969	73138	969	78956094
64	-1020	3756	-40	-22	27	66	-18	144	970	73237	970	78956095
72	-1038	3776	-41	-25	26	66	-18	140	971	73289	971	78956095
75	-1037	3765	-41	-28	24	66	-18	140	972	73388	972	78956099
76	-1027	3788	-38	-33	25	60	-22	136	973	73440	973	78956099
81	-1029	3763	-40	-36	26	60	-22	136	974	73539	974	78956101
66	-1026	3775	-37	-37	25	67	-21	141	975	73591	975	78956108
51	-1036	3777	-40	-37	24	67	-21	141	976	73690	976	78956109
62	-1045	3772	-40	-44	25	62	-22	144	977	73742	977	78956118
74	-1045	3783	-42	-49	23	62	-22	144	978	73841	978	78956118
49	-1034	3816	-38	-50	19	67	-19	139	979	73893	979	78956122
58	-1040	3792	-44	-53	26	67	-19	139	980	73992	980	78956156
70	-1030	3797	-42	-58	22	62	-16	142	981	74044	981	78956157
57	-1039	3793	-42	-61	20	62	-16	142	982	74143	982	78956160
75	-1037	3794	-42	-61	23	67	-19	143	983	74195	983	78956160
70	-1049	3793	-45	-67	18	67	-19	143	984	74294	984	78956162
61	-1035	3784	-46	-71	19	66	-22	138	985	74346	985	78956164
65	-1045	3796	-47	-72	20	66	-22	138	986	74445	986	78956164
66	-1025	3787	-45	-73	19	63	-19	139	987	74497	987	78956167
63	-1031	3804	-48	-76	16	63	-19	139	988	74596	988	78956168
68	-1041	3792	-50	-78	16	68	-20	146	989	74648	989	78956204
52	-1037	3767	-51	-80	16	68	-20	146	990	74747	990	78956204
60	-1042	3784	-52	-85	16	64	-22	142	991	74799	991	78956205
69	-1051	3823	-50	-86	16	64	-22	142	992	74898	992	78956207
54	-1043	3810	-51	-91	17	63	-23	143	993	74950	993	78956208
66	-1028	3764	-55	-95	11	63	-23	143	994	75049	994	78956211
61	-1031	3802	-53	-99	14	63	-21	133	995	75101	995	78956211
32	-1032	3788	-54	-99	16	63	-21	133	996	75200	996	78956213
56	-1023	3779	-53	-102	13	62	-22	136	997	75252	997	78956216
70	-1030	3797	-54	-106	12	62	-22	136	998	75351	998	78956216
68	-1028	3776	-54	-107	14	61	-23	145	999	75403	999	78956252
52	-1035	3787	-53	-110	11	61	-23	145	1000	75502	1000	78956253
69	-1010	3765	-53	-112	10	64	-22	138	1001	75554	1001	78956255
56	-1020	3767	-55	-115	11	64	-22	138	1002	75653	1002	78956256
57	-1030	3763	-53	-118	8	63	-17	145	1003	75705	1003	78956257
59	-1015	3754	-55	-118	6	63	-17	145	1004	75804	1004	78956260
65	-1028	3766	-53	-122	8	64	-22	138	1005	75856	1005	78956260
68	-1035	3781	-51	-126	8	64	-22	138	1006	75955	1006	78956262
51	-1027	3800	-47	-127	6	63	-19	137	1007	76007	1007	78956267
60	-1028	3785	-49	-130	9	63	-19	137	1008	76106	1008	78956268
61	-1034	3790	-51	-132	7	65	-25	141	1009	76158	1009	78956277
54	-1035	3774	-52	-135	7	65	-25	141	1010	76257	1010	78956278
54	-1029	3775	-48	-136	9	65	-21	141	1011	76309	1011	78956280
68	-1019	3786	-48	-138	8	65	-21	141	1012	76408	1012	78956312
32	-1024	3799	-46	-141	7	65	-23	141	1013	76460	1013	78956313
72	-1040	3784	-48	-140	7	65	-23	141	1014	76559	1014	78956316
40	-1043	3787	-49	-142	8	62	-18	142	1015	76611	1015	78956317
40	-1040	3769	-49	-142	5	62	-18	142	1016	76710	1016	78956319
53	-1044	3789	-50	-146	5	64	-24	144	1017	76762	1017	78956320
46	-1043	3790	-49	-149	6	64	-24	144	1018	76861	1018	78956321
60	-1048	3795	-48	-151	5	59	-21	139	1019	76913	1019	78956327
49	-1051	3764	-49	-148	7	59	-21	139	1020	77012	1020	78956328
53	-1043	3775	-49	-154	6	68	-24	140	1021	77064	1021	78956337
50	-1029	3780	-54	-155	4	68	-24	140	1022	77163	1022	78956338
51	-1038	3808	-55	-156	6	61	-25	139	1023	77215	1023	78956341
40	-1046	3794	-57	-156	6	61	-25	139	1024	77314	1024	78956351
48	-1037	3813	-54	-156	3	65	-19	139	1025	77366	1025	78956351
30	-1030	3810	-54	-159	5	65	-19	139	1026	77465	1026	78956386
47	-1018	3805	-57	-158	6	65	-29	145	1027	77517	1027	78956386
35	-1025	3783	-55	-159	2	65	-29	145	1028	77616	1028	78956388
35	-1041	3796	-54	-163	2	68	-26	146	1029	77668	1029	78956415
30	-1039	3792	-56	-164	4	68	-26	146	1030	77767	1030	78956415
37	-1025	3793	-57	-162	1	63	-25	139	1031	77819	1031	78956418
22	-1037	3780	-56	-164	3	63	-25	139	1032	77918	1032	78956419
52	-1031	3791	-60	-167	5	61	-23	143	1033	77970	1033	78956421
41	-1025	3795	-61	-166	4	61	-23	143	1034	78069	1034	78956422
50	-1034	3795	-60	-168	2	63	-23	145	1035	78121	1035	78956423
41	-1034	3780	-59	-166	3	63	-23	145	1036	78220	1036	78956426
56	-1022	3802	-56	-172	2	66	-24	138	1037	78272	1037	78956426
26	-1025	3784	-55	-169	1	66	-24	138	1038	78371	1038	78956428
30	-1026	3784	-57	-170	2	60	-30	136	1039	78423	1039	78956430
35	-1018	3805	-58	-168	2	60	-30	136	1040	78522	1040	78956430
25	-1011	3784	-58	-167	1	67	-27	141	1041	78574	1041	78956435
35	-1018	3782	-59	-167	4	67	-27	141	1042	78673	1042	78956435
43	-1017	3774	-57	-168	1	70	-20	146	1043	78725	1043	78956471
42	-1021	3774	-57	-169	3	70	-20	146	1044	78824	1044	78956472
26	-1040	3763	-55	-169	3	67	-23	141	1045	78876	1045	78956472
27	-1027	3770	-56	-169	2	67	-23	141	1046	78975	1046	78956475
32	-1041	3779	-55	-168	3	64	-28	138	1047	79027	1047	78956475
37	-1017	3769	-54	-167	3	64	-28	138	1048	79126	1048	78956478
46	-1028	3782	-52	-172	6	63	-25	143	1049	79178	1049	78956479
31	-1014	3789	-53	-169	3	63	-25	143	1050	79277	1050	78956481
31	-1036	3798	-52	-168	4	67	-27	139	1051	79329	1051	78956486
37	-1028	3767	-53	-167	6	67	-27	139	1052	79428	1052	78956486
34	-1017	3777	-55	-169	5	66	-32	144	1053	79480	1053	78956496
37	-1035	3775	-53	-171	2	66	-32	144	1054	79579	1054	78956496
46	-1033	3806	-52	-166	3	61	-27	143	1055	79631	1055	78956500
17	-1039	3786	-50	-166	6	61	-27	143	1056	79730	1056	78956533
16	-1036	3779	-51	-165	4	66	-30	144	1057	79782	1057	78956533
33	-1018	3799	-53	-165	7	66	-30	144	1058	79881	1058	78956536
22	-1029	3790	-52	-164	5	70	-28	140	1059	79933	1059	78956536
20	-1027	3800	-54	-162	4	70	-28	140	1060	80032	1060	78956538
5	-1038	3792	-52	-160	9	66	-26	142	1061	80084	1061	78956540
28	-1032	3790	-57	-159	7	66	-26	142	1062	80183	1062	78956540
14	-1040	3803	-52	-158	5	65	-23	141	1063	80235	1063	78956545
15	-1025	3783	-51	-157	8	65	-23	141	1064	80334	1064	78956545
35	-1025	3801	-53	-160	8	62	-28	144	1065	80386	1065	78956548
23	-1022	3792	-56	-156	6	62	-28	144	1066	80485	1066	78956582
21	-1032	3791	-56	-156	9	64	-28	146	1067	80537	1067	78956583
3	-1040	3780	-57	-154	10	64	-28	146	1068	80636	1068	78956585
36	-1029	3795	-52	-151	7	64	-32	142	1069	80688	1069	78956586
19	-1028	3780	-57	-149	7	64	-32	142	1070	80787	1070	78956588
14	-1032	3772	-53	-149	11	59	-27	143	1071	80839	1071	78956589
25	-1022	3768	-54	-147	8	59	-27	143	1072	80938	1072	78956590
16	-1017	3784	-55	-144	10	66	-34	140	1073	80990	1073	78956594
16	-1034	3783	-56	-141	10	66	-34	140	1074	81089	1074	78956594
18	-1038	3793	-54	-141	8	62	-32	152	1075	81141	1075	78956629
14	-1019	3797	-55	-139	8	62	-32	152	1076	81240	1076	78956629
9	-1031	3758	-52	-137	11	66	-34	142	1077	81292	1077	78956631
23	-1027	3769	-53	-134	11	66	-34	142	1078	81391	1078	78956632
37	-1039	3775	-51	-134	12	65	-29	143	1079	81443	1079	78956633
26	-1030	3777	-51	-130	12	65	-29	143	1080	81542	1080	78956636
15	-1024	3774	-50	-131	13	70	-28	140	1081	81594	1081	78956637
25	-1024	3798	-54	-128	11	70	-28	140	1082	81693	1082	78956638
24	-1017	3773	-48	-124	13	69	-33	143	1083	81745	1083	78956645
26	-1042	3758	-52	-122	10	69	-33	143	1084	81844	1084	78956645
-5	-1028	3780	-51	-120	10	65	-29	141	1085	81896	1085	78956655
17	-1038	3793	-50	-116	12	65	-29	141	1086	81995	1086	78956656
11	-1024	3792	-46	-119	12	62	-28	148	1087	82047	1087	78956660
25	-1025	3773	-46	-115	11	62	-28	148	1088	82146	1088	78956669
13	-1028	3756	-46	-110	12	62	-32	142	1089	82198	1089	78956671
22	-1028	3773	-48	-107	11	62	-32	142	1090	82297	1090	78956703
24	-1019	3778	-47	-105	13	67	-33	147	1091	82349	1091	78956704
7	-1030	3779	-46	-104	15	67	-33	147	1092	82448	1092	78956706
13	-1033	3769	-44	-102	13	67	-33	149	1093	82500	1093	78956707
26	-1020	3787	-46	-97	12	67	-33	149	1094	82599	1094	78956707
5	-1027	3772	-45	-98	15	67	-25	145	1095	82651	1095	78956711
17	-1026	3778	-45	-89	18	67	-25	145	1096	82750	1096	78956712
14	-1038	3776	-45	-91	16	64	-26	144	1097	82802	1097	78956715
28	-1035	3786	-44	-88	16	64	-26	144	1098	82901	1098	78956715
18	-1026	3771	-45	-85	16	67	-33	145	1099	82953	1099	78956715
13	-1035	3772	-45	-80	18	67	-33	145	1100	83052	1100	78956751
12	-1050	3789	-45	-80	18	64	-30	146	1101	83104	1101	78956751
15	-1017	3790	-45	-77	19	64	-30	146	1102	83203	1102	78956754
5	-1037	3782	-43	-74	19	69	-29	145	1103	83255	1103	78956755
-9	-1042	3787	-46	-73	19	69	-29	145	1104	83354	1104	78956757
18	-1040	3798	-46	-69	20	64	-32	142	1105	83406	1105	78956758
7	-1021	3798	-48	-64	19	64	-32	142	1106	83505	1106	78956759
6	-1035	3782	-48	-61	20	65	-27	137	1107	83557	1107	78956763
-15	-1035	3796	-49	-59	24	65	-27	137	1108	83656	1108	78956764
11	-1049	3784	-45	-57	24	59	-27	149	1109	83708	1109	78956767
5	-1036	3803	-46	-52	21	59	-27	149	1110	83807	1110	78956800
4	-1024	3776	-47	-50	24	61	-31	141	1111	83859	1111	78956801
13	-1033	3772	-46	-46	25	61	-31	141	1112	83958	1112	78956804
21	-1036	3791	-44	-43	22	69	-27	141	1113	84010	1113	78956804
21	-1032	3795	-43	-37	25	69	-27	141	1114	84109	1114	78956806
25	-1027	3783	-42	-36	27	62	-30	138	1115	84161	1115	78956807
7	-1024	3775	-44	-34	26	62	-30	138	1116	84260	1116	78956808
8	-1023	3774	-44	-30	25	69	-29	139	1117	84312	1117	78956812
3	-1029	3760	-43	-28	27	69	-29	139	1118	84411	1118	78956812
9	-1037	3780	-43	-26	25	75	-29	155	1119	84463	1119	78956816
6	-1039	3792	-41	-23	28	75	-29	155	1120	84562	1120	78956848
14	-1022	3777	-42	-21	27	69	-31	145	1121	84614	1121	78956849
4	-1022	3773	-43	-15	28	69	-31	145	1122	84713	1122	78956852
-4	-1025	3774	-41	-13	31	60	-28	146	1123	84765	1123	78956852
4	-1022	3781	-43	-11	29	60	-28	146	1124	84864	1124	78956855
5	-1024	3791	-41	-8	28	61	-31	145	1125	84916	1125	78956856
4	-1024	3786	-39	-5	28	61	-31	145	1126	85015	1126	78956857
4	-1029	3775	-38	-2	32	63	-35	137	1127	85067	1127	78956863
11	-1035	3768	-38	3	30	63	-35	137	1128	85166	1128	78956864
6	-1025	3781	-36	4	31	64	-30	148	1129	85218	1129	78956873
25	-1023	3764	-39	9	32	64	-30	148	1130	85317	1130	78956873
9	-1016	3772	-35	9	31	65	-31	149	1131	85369	1131	78956876
2	-1015	3774	-36	14	33	65	-31	149	1132	85468	1132	78956911
16	-1039	3768	-34	16	33	63	-31	147	1133	85520	1133	78956911
9	-1037	3781	-38	20	34	63	-31	147	1134	85619	1134	78956914
5	-1025	3782	-38	24	34	63	-29	145	1135	85671	1135	78956915
14	-1013	3778	-37	24	38	63	-29	145	1136	85770	1136	78956917
14	-1010	3790	-37	26	39	66	-30	142	1137	85822	1137	78956918
3	-1042	3779	-35	32	36	66	-30	142	1138	85921	1138	78956919
17	-1022	3773	-35	33	37	61	-29	139	1139	85973	1139	78956922
10	-1030	3794	-38	38	38	61	-29	139	1140	86072	1140	78956922
20	-1020	3782	-33	40	40	69	-31	147	1141	86124	1141	78956927
20	-1034	3807	-36	43	40	69	-31	147	1142	86223	1142	78956960
-1	-1031	3795	-37	45	40	67	-29	145	1143	86275	1143	78956960
15	-1036	3794	-39	47	40	67	-29	145	1144	86374	1144	78956963
2	-1021	3778	-36	50	41	67	-25	141	1145	86426	1145	78956964
5	-1023	3784	-38	54	40	67	-25	141	1146	86525	1146	78956966
22	-1030	3773	-34	54	39	63	-31	141	1147	86577	1147	78956968
9	-1028	3787	-37	58	41	63	-31	141	1148	86676	1148	78956968
28	-1024	3754	-36	62	43	63	-31	145	1149	86728	1149	78956971
16	-1023	3782	-35	63	44	63	-31	145	1150	86827	1150	78956972
24	-1038	3793	-35	64	40	63	-33	145	1151	86879	1151	78956984
11	-1029	3782	-37	68	43	63	-33	145	1152	86978	1152	78956984
22	-1033	3780	-36	68	41	74	-30	148	1153	87030	1153	78956985
23	-1015	3770	-36	71	42	74	-30	148	1154	87129	1154	78957018
7	-1019	3767	-34	73	42	66	-30	142	1155	87181	1155	78957019
30	-1020	3782	-38	74	43	66	-30	142	1156	87280	1156	78957022
27	-1020	3776	-34	76	42	66	-26	144	1157	87332	1157	78957023
18	-1029	3791	-33	78	45	66	-26	144	1158	87431	1158	78957024
22	-1022	3765	-34	81	47	65	-25	143	1159	87483	1159	78957026
15	-1020	3782	-32	83	45	65	-25	143	1160	87582	1160	78957027
21	-1029	3789	-32	84	48	63	-31	143	1161	87634	1161	78957054
30	-1030	3769	-30	87	47	63	-31	143	1162	87733	1162	78957056
33	-1028	3781	-30	88	46	63	-25	143	1163	87785	1163	78957057
14	-1025	3775	-31	90	50	63	-25	143	1164	87884	1164	78957058
19	-1026	3784	-28	90	47	67	-27	141	1165	87936	1165	78957059
36	-1035	3806	-28	93	48	67	-27	141	1166	88035	1166	78957062
25	-1023	3764	-29	95	48	65	-31	133	1167	88087	1167	78957062
20	-1037	3793	-29	97	48	65	-31	133	1168	88186	1168	78957064
19	-1026	3776	-28	97	46	67	-31	147	1169	88238	1169	78957071
27	-1037	3789	-28	98	48	67	-31	147	1170	88337	1170	78957071
32	-1031	3797	-27	100	50	58	-28	144	1171	88389	1171	78957082
25	-1041	3787	-30	100	49	58	-28	144	1172	88488	1172	78957082
22	-1017	3783	-28	101	51	63	-27	145	1173	88540	1173	78957084
34	-1034	3785	-30	104	48	63	-27	145	1174	88639	1174	78957117
18	-1026	3795	-28	106	48	62	-32	140	1175	88691	1175	78957118
19	-1017	3785	-29	108	50	62	-32	140	1176	88790	1176	78957121
16	-1025	3798	-28	110	51	66	-22	144	1177	88842	1177	78957121
38	-1034	3796	-30	108	51	66	-22	144	1178	88941	1178	78957124
44	-1031	3768	-27	110	51	63	-27	137	1179	88993	1179	78957125
38	-1037	3810	-29	109	50	63	-27	137	1180	89092	1180	78957127
33	-1041	3790	-28	110	49	70	-30	142	1181	89144	1181	78957129
36	-1016	3795	-29	110	47	70	-30	142	1182	89243	1182	78957130
37	-1033	3816	-29	114	50	65	-25	145	1183	89295	1183	78957164
43	-1020	3795	-31	114	50	65	-25	145	1184	89394	1184	78957165
35	-1037	3802	-30	115	52	62	-26	146	1185	89446	1185	78957167
35	-1037	3776	-32	114	54	62	-26	146	1186	89545	1186	78957168
22	-1020	3778	-30	113	50	64	-26	144	1187	89597	1187	78957168
38	-1036	3797	-30	115	49	64	-26	144	1188	89696	1188	78957172
16	-1032	3781	-28	114	51	60	-22	140	1189	89748	1189	78957172
41	-1028	3767	-32	115	51	60	-22	140	1190	89847	1190	78957174
42	-1032	3772	-30	113	48	65	-25	137	1191	89899	1191	78957186
44	-1030	3767	-31	115	51	65	-25	137	1192	89998	1192	78957187
33	-1026	3795	-32	114	51	61	-33	143	1193	90050	1193	78957215
47	-1008	3775	-29	113	46	61	-33	143	1194	90149	1194	78957215
49	-1038	3794	-27	113	48	69	-27	145	1195	90201	1195	78957217
38	-1037	3780	-30	115	50	69	-27	145	1196	90300	1196	78957219
59	-1028	3780	-28	114	49	63	-19	143	1197	90352	1197	78957219
42	-1019	3767	-29	114	47	63	-19	143	1198	90451	1198	78957222
33	-1036	3794	-27	114	51	61	-27	145	1199	90503	1199	78957222
52	-1029	3794	-30	115	48	61	-27	145	1200	90602	1200	78957225
35	-1021	3776	-29	115	46	68	-28	138	1201	90654	1201	78957226
35	-1027	3792	-29	111	48	68	-28	138	1202	90753	1202	78957226
66	-1030	3752	-30	112	46	68	-22	148	1203	90805	1203	78957262
58	-1026	3772	-32	113	50	68	-22	148	1204	90904	1204	78957262
52	-1025	3804	-26	110	48	60	-22	144	1205	90956	1205	78957264
57	-1029	3782	-30	112	47	60	-22	144	1206	91055	1206	78957265
25	-1025	3790	-29	109	46	63	-17	137	1207	91107	1207	78957266
40	-1030	3794	-28	110	49	63	-17	137	1208	91206	1208	78957269
39	-1023	3761	-31	108	47	62	-20	134	1209	91258	1209	78957269
44	-1044	3804	-31	106	44	62	-20	134	1210	91357	1210	78957274
45	-1033	3782	-29	107	45	65	-25	145	1211	91409	1211	78957274
37	-1036	3789	-31	106	46	65	-25	145	1212	91508	1212	78957278
51	-1032	3795	-32	104	42	66	-22	142	1213	91560	1213	78957311
32	-1047	3774	-31	103	44	66	-22	142	1214	91659	1214	78957312
52	-1049	3778	-31	100	45	67	-21	141	1215	91711	1215	78957315
54	-1031	3787	-32	102	45	67	-21	141	1216	91810	1216	78957315
54	-1019	3797	-31	99	47	64	-16	142	1217	91862	1217	78957317
46	-1037	3783	-32	99	45	64	-16	142	1218	91961	1218	78957318
83	-1041	3796	-33	95	44	65	-27	141	1219	92013	1219	78957319
66	-1030	3781	-29	95	44	65	-27	141	1220	92112	1220	78957323
45	-1038	3779	-29	94	44	65	-21	139	1221	92164	1221	78957324
50	-1026	3778	-34	92	44	65	-21	139	1222	92263	1222	78957327
72	-1033	3806	-35	90	44	68	-20	146	1223	92315	1223	78957359
66	-1044	3800	-34	87	47	68	-20	146	1224	92414	1224	78957360
64	-1034	3804	-32	87	43	61	-23	149	1225	92466	1225	78957363
55	-1028	3781	-35	85	43	61	-23	149	1226	92565	1226	78957365
60	-1037	3801	-35	81	46	61	-17	139	1227	92617	1227	78957367
34	-1028	3791	-34	84	46	61	-17	139	1228	92716	1228	78957369
64	-1036	3796	-35	78	43	57	-17	139	1229	92768	1229	78957370
58	-1034	3778	-37	76	43	57	-17	139	1230	92867	1230	78957374
64	-1016	3789	-35	73	44	62	-24	142	1231	92919	1231	78957375
32	-1032	3765	-35	71	41	62	-24	142	1232	93018	1232	78957377
26	-1032	3762	-33	70	43	65	-19	143	1233	93070	1233	78957384
52	-1029	3777	-32	69	41	65	-19	143	1234	93169	1234	78957385
61	-1020	3798	-32	65	41	64	-24	142	1235	93221	1235	78957422
47	-1044	3799	-33	63	41	64	-24	142	1236	93320	1236	78957422
66	-1034	3783	-35	61	41	63	-17	147	1237	93372	1237	78957425
52	-1031	3784	-38	58	39	63	-17	147	1238	93471	1238	78957426
78	-1018	3803	-37	55	41	66	-20	144	1239	93523	1239	78957426
64	-1033	3788	-37	56	42	66	-20	144	1240	93622	1240	78957429
37	-1048	3818	-34	49	39	70	-20	140	1241	93674	1241	78957429
16	-1044	3776	-36	50	42	70	-20	140	1242	93773	1242	78957433
38	-1026	3762	-37	47	39	70	-16	144	1243	93825	1243	78957433
59	-1032	3777	-38	44	35	70	-16	144	1244	93924	1244	78957437
70	-1028	3779	-35	42	38	65	-21	143	1245	93976	1245	78957470
39	-1025	3806	-36	36	38	65	-21	143	1246	94075	1246	78957471
56	-1033	3807	-32	30	33	66	-20	142	1247	94127	1247	78957474
58	-1030	3789	-36	31	34	66	-20	142	1248	94226	1248	78957475
71	-1036	3793	-37	31	37	60	-22	134	1249	94278	1249	78957477
66	-1026	3813	-39	30	35	60	-22	134	1250	94377	1250	78957478
46	-1031	3793	-37	26	35	59	-19	139	1251	94429	1251	78957478
51	-1045	3796	-35	23	34	59	-19	139	1252	94528	1252	78957482
42	-1024	3768	-35	19	34	63	-21	145	1253	94580	1253	78957482
51	-1039	3804	-39	15	35	63	-21	145	1254	94679	1254	78957488
59	-1028	3810	-37	13	34	71	-21	143	1255	94731	1255	78957522
67	-1031	3798	-41	10	34	71	-21	143	1256	94830	1256	78957523
81	-1039	3762	-39	6	31	64	-18	146	1257	94882	1257	78957525
66	-1043	3787	-40	5	31	64	-18	146	1258	94981	1258	78957527
32	-1037	3793	-39	2	31	61	-15	145	1259	95033	1259	78957528
62	-1036	3780	-41	1	31	61	-15	145	1260	95132	1260	78957529
86	-1020	3783	-40	-5	32	64	-20	138	1261	95184	1261	78957530
71	-1018	3769	-41	-5	32	64	-20	138	1262	95283	1262	78957533
65	-1034	3767	-41	-9	27	59	-19	141	1263	95335	1263	78957533
64	-1024	3770	-40	-11	30	59	-19	141	1264	95434	1264	78957544
63	-1021	3773	-43	-18	30	68	-24	146	1265	95486	1265	78957544
33	-1041	3787	-43	-16	25	68	-24	146	1266	95585	1266	78957545
37	-1047	3770	-43	-22	30	67	-23	143	1267	95637	1267	78957580
41	-1047	3778	-45	-23	28	67	-23	143	1268	95736	1268	78957581
34	-1047	3783	-43	-26	24	64	-20	144	1269	95788	1269	78957584
53	-1029	3794	-43	-27	25	64	-20	144	1270	95887	1270	78957585
81	-1016	3765	-45	-34	25	64	-18	138	1271	95939	1271	78957587
27	-1025	3799	-43	-34	23	64	-18	138	1272	96038	1272	78957589
49	-1039	3777	-45	-40	25	65	-21	139	1273	96090	1273	78957590
79	-1027	3807	-46	-40	24	65	-21	139	1274	96189	1274	78957592
57	-1024	3807	-46	-45	23	65	-17	139	1275	96241	1275	78957593
85	-1035	3781	-47	-46	24	65	-17	139	1276	96340	1276	78957595
60	-1031	3788	-43	-52	25	66	-24	148	1277	96392	1277	78957628
71	-1019	3781	-46	-53	22	66	-24	148	1278	96491	1278	78957628
46	-1039	3771	-43	-55	20	63	-17	145	1279	96543	1279	78957632
81	-1016	3769	-45	-57	22	63	-17	145	1280	96642	1280	78957632
66	-1030	3791	-42	-62	20	70	-20	138	1281	96694	1281	78957634
42	-1032	3813	-45	-67	17	70	-20	138	1282	96793	1282	78957635
50	-1032	3775	-43	-69	21	63	-21	141	1283	96845	1283	78957636
56	-1028	3775	-42	-72	19	63	-21	141	1284	96944	1284	78957640
53	-1041	3764	-45	-76	19	61	-19	139	1285	96996	1285	78957641
74	-1021	3795	-45	-79	20	61	-19	139	1286	97095	1286	78957647
67	-1037	3783	-46	-80	19	70	-24	146	1287	97147	1287	78957693
72	-1035	3797	-47	-81	14	70	-24	146	1288	97246	1288	78957693
53	-1028	3796	-47	-85	16	63	-19	143	1289	97297	1289	78957696
58	-1035	3765	-45	-86	15	63	-19	143	1290	97397	1290	78957697
89	-1034	3792	-47	-90	14	66	-16	138	1291	97449	1291	78957699
70	-1037	3776	-47	-90	17	66	-16	138	1292	97548	1292	78957700
63	-1037	3785	-51	-92	17	59	-21	137	1293	97600	1293	78957700
69	-1033	3791	-50	-98	15	59	-21	137	1294	97699	1294	78957704
14	-1055	3787	-48	-100	15	67	-19	139	1295	97751	1295	78957705
48	-1047	3778	-49	-97	17	67	-19	139	1296	97850	1296	78957708
67	-1035	3803	-49	-105	13	61	-27	145	1297	97902	1297	78957708
49	-1035	3789	-50	-108	15	61	-27	145	1298	98001	1298	78957711
40	-1045	3813	-48	-108	14	63	-23	139	1299	98053	1299	78957717
46	-1038	3804	-50	-111	12	63	-23	139	1300	98152	1300	78957718
56	-1024	3774	-50	-112	9	68	-20	146	1301	98204	1301	78957751
61	-1025	3813	-52	-113	13	68	-20	146	1302	98303	1302	78957752
54	-1037	3802	-49	-117	11	65	-21	145	1303	98354	1303	78957754
41	-1039	3782	-53	-118	10	65	-21	145	1304	98453	1304	78957755
68	-1004	3810	-51	-118	10	62	-18	144	1305	98505	1305	78957755
63	-1009	3781	-50	-123	8	62	-18	144	1306	98604	1306	78957759
44	-1026	3782	-52	-125	8	61	-23	137	1307	98656	1307	78957759
67	-1030	3786	-54	-126	10	61	-23	137	1308	98755	1308	78957761
22	-1027	3781	-54	-129	7	67	-19	141	1309	98807	1309	78957764
28	-1030	3772	-53	-129	7	67	-19	141	1310	98906	1310	78957764
37	-1040	3798	-54	-133	8	64	-18	144	1311	98958	1311	78957799
33	-1037	3795	-55	-132	10	64	-18	144	1312	99057	1312	78957799
47	-1032	3799	-55	-134	5	59	-25	143	1313	99109	1313	78957802
55	-1032	3782	-51	-136	6	59	-25	143	1314	99208	1314	78957803
54	-1028	3778	-52	-138	6	62	-24	142	1315	99260	1315	78957803
65	-1017	3759	-53	-138	6	62	-24	142	1316	99359	1316	78957807
40	-1023	3779	-53	-141	7	61	-25	139	1317	99410	1317	78957808
56	-1031	3790	-53	-144	9	61	-25	139	1318	99509	1318	78957810
22	-1029	3792	-53	-146	4	64	-28	144	1319	99561	1319	78957816
59	-1029	3797	-54	-144	5	64	-28	144	1320	99660	1320	78957816
84	-1014	3794	-52	-143	8	65	-23	147	1321	99712	1321	78957850
30	-1037	3799	-53	-147	4	65	-23	147	1322	99811	1322	78957857
52	-1041	3803	-53	-149	5	65	-25	147	1323	99863	1323	78957858
40	-1034	3791	-52	-149	8	65	-25	147	1324	99962	1324	78957859
60	-1037	3793	-53	-148	5	64	-24	144	1325	100014	1325	78957860
59	-1029	3787	-56	-149	4	64	-24	144	1326	100113	1326	78957861
33	-1042	3787	-52	-151	8	63	-23	135	1327	100165	1327	78957861
28	-1038	3778	-53	-156	2	63	-23	135	1328	100264	1328	78957862
47	-1007	3797	-54	-154	3	66	-24	140	1329	100316	1329	78957863
20	-1031	3782	-55	-156	3	66	-24	140	1330	100415	1330	78957865
33	-1025	3778	-54	-156	4	66	-22	144	1331	100467	1331	78957898
40	-1024	3805	-53	-154	4	66	-22	144	1332	100566	1332	78957898
44	-1042	3804	-53	-157	5	67	-21	147	1333	100618	1333	78957901
49	-1039	3807	-53	-158	3	67	-21	147	1334	100717	1334	78957902
45	-1046	3805	-56	-157	4	63	-25	137	1335	100769	1335	78957904
46	-1034	3781	-53	-158	5	63	-25	137	1336	100868	1336	78957906
42	-1013	3787	-53	-159	5	63	-21	143	1337	100920	1337	78957906
37	-1024	3788	-54	-157	3	63	-21	143	1338	101019	1338	78957910
42	-1036	3782	-50	-159	5	68	-22	146	1339	101071	1339	78957910
53	-1015	3776	-52	-160	3	68	-22	146	1340	101170	1340	78957916
46	-1026	3781	-53	-160	2	66	-26	144	1341	101222	1341	78957948
49	-1043	3781	-56	-157	5	66	-26	144	1342	101321	1342	78957949
41	-1041	3793	-54	-156	5	60	-24	142	1343	101373	1343	78957952
41	-1034	3804	-54	-157	5	60	-24	142	1344	101472	1344	78957952
31	-1033	3769	-51	-162	5	64	-22	140	1345	101524	1345	78957954
51	-1029	3803	-55	-159	6	64	-22	140	1346	101623	1346	78957956
17	-1027	3766	-54	-158	5	56	-24	142	1347	101675	1347	78957956
42	-1035	3791	-57	-159	6	56	-24	142	1348	101774	1348	78957960
40	-1029	3771	-56	-159	5	66	-26	144	1349	101826	1349	78957960
34	-1032	3778	-57	-157	2	66	-26	144	1350	101925	1350	78957963
48	-1036	3787	-56	-156	7	64	-20	142	1351	101977	1351	78957996
33	-1026	3784	-54	-155	4	64	-20	142	1352	102076	1352	78957997
30	-1025	3775	-54	-156	5	66	-28	144	1353	102128	1353	78958000
30	-1049	3777	-53	-155	9	66	-28	144	1354	102227	1354	78958001
29	-1018	3790	-53	-155	9	62	-26	134	1355	102279	1355	78958002
27	-1025	3781	-57	-153	6	62	-26	134	1356	102378	1356	78958004
27	-1028	3758	-55	-152	8	62	-32	142	1357	102430	1357	78958004
28	-1024	3798	-51	-154	10	62	-32	142	1358	102529	1358	78958009
44	-1025	3774	-50	-150	10	65	-29	145	1359	102581	1359	78958009
34	-1026	3771	-55	-151	10	65	-29	145	1360	102680	1360	78958044
29	-1029	3784	-48	-149	9	69	-27	143	1361	102732	1361	78958045
24	-1025	3780	-53	-146	7	69	-27	143	1362	102831	1362	78958045
23	-1026	3765	-54	-148	8	66	-24	150	1363	102883	1363	78958047
30	-1028	3790	-52	-144	9	66	-24	150	1364	102982	1364	78958047
15	-1043	3790	-51	-144	11	60	-24	140	1365	103034	1365	78958050
34	-1024	3783	-50	-142	10	60	-24	140	1366	103133	1366	78958051
22	-1025	3772	-51	-143	11	62	-26	140	1367	103185	1367	78958053
25	-1030	3776	-53	-141	11	62	-26	140	1368	103284	1368	78958059
26	-1024	3783	-52	-140	12	68	-30	146	1369	103336	1369	78958060
40	-1041	3760	-53	-137	11	68	-30	146	1370	103435	1370	78958093
39	-1032	3794	-52	-137	10	67	-27	143	1371	103487	1371	78958093
37	-1022	3784	-51	-135	9	67	-27	143	1372	103586	1372	78958095
18	-1023	3790	-50	-132	11	66	-28	144	1373	103638	1373	78958097
47	-1023	3767	-54	-129	13	66	-28	144	1374	103737	1374	78958097
38	-1035	3805	-52	-132	11	63	-25	139	1375	103789	1375	78958100
30	-1029	3782	-51	-129	12	63	-25	139	1376	103888	1376	78958101
26	-1039	3765	-51	-130	14	64	-30	144	1377	103940	1377	78958103
32	-1043	3795	-51	-128	13	64	-30	144	1378	104039	1378	78958108
36	-1034	3775	-48	-121	14	66	-30	148	1379	104091	1379	78958109
30	-1025	3787	-49	-120	14	66	-30	148	1380	104190	1380	78958144
8	-1022	3785	-49	-120	13	69	-33	149	1381	104242	1381	78958144
46	-1030	3785	-53	-121	13	69	-33	149	1382	104341	1382	78958146
48	-1029	3778	-50	-119	15	69	-33	145	1383	104393	1383	78958147
38	-1035	3787	-49	-115	13	69	-33	145	1384	104492	1384	78958148
27	-1032	3784	-48	-112	14	64	-24	146	1385	104544	1385	78958151
40	-1035	3792	-50	-111	18	64	-24	146	1386	104643	1386	78958152
25	-1045	3779	-53	-112	17	63	-31	141	1387	104695	1387	78958154
38	-1028	3792	-51	-109	14	63	-31	141	1388	104794	1388	78958155
14	-1012	3786	-49	-106	17	63	-37	147	1389	104846	1389	78958155
47	-1030	3784	-51	-107	18	63	-37	147	1390	104945	1390	78958192
43	-1039	3763	-49	-102	19	61	-33	139	1391	104997	1391	78958193
46	-1033	3766	-48	-101	18	61	-33	139	1392	105096	1392	78958194
14	-1018	3788	-46	-98	18	68	-32	150	1393	105148	1393	78958195
40	-1016	3781	-51	-98	16	68	-32	150	1394	105247	1394	78958197
45	-1042	3755	-48	-96	20	62	-32	140	1395	105299	1395	78958199
39	-1023	3781	-47	-94	20	62	-32	140	1396	105398	1396	78958199
46	-1025	3782	-49	-93	15	69	-27	141	1397	105450	1397	78958203
60	-1024	3782	-45	-90	18	69	-27	141	1398	105549	1398	78958204
43	-1034	3790	-47	-89	21	61	-27	143	1399	105601	1399	78958207
32	-1027	3785	-51	-88	19	61	-27	143	1400	105700	1400	78958240
21	-1025	3777	-46	-83	21	65	-33	143	1401	105752	1401	78958240
43	-1030	3782	-46	-84	21	65	-33	143	1402	105851	1402	78958243
35	-1031	3772	-43	-82	20	66	-28	140	1403	105903	1403	78958244
59	-1033	3775	-45	-78	18	66	-28	140	1404	106002	1404	78958246
50	-1029	3788	-45	-79	22	63	-33	139	1405	106054	1405	78958247
33	-1036	3764	-48	-74	21	63	-33	139	1406	106153	1406	78958247
33	-1035	3785	-50	-71	23	64	-28	140	1407	106205	1407	78958252
23	-1039	3757	-50	-68	26	64	-28	140	1408	106304	1408	78958252
23	-1023	3775	-48	-70	24	65	-29	147	1409	106356	1409	78958256
17	-1046	3794	-43	-65	23	65	-29	147	1410	106455	1410	78958288
35	-1034	3769	-43	-65	25	67	-25	145	1411	106507	1411	78958289
23	-1038	3773	-44	-63	23	67	-25	145	1412	106606	1412	78958292
13	-1041	3810	-46	-60	22	62	-28	146	1413	106658	1413	78958292
16	-1040	3790	-46	-55	25	62	-28	146	1414	106757	1414	78958294
-31	-1036	3777	-40	-53	23	64	-34	144	1415	106809	1415	78958296
34	-1029	3752	-44	-51	24	64	-34	144	1416	106908	1416	78958296
60	-1024	3779	-41	-49	28	66	-28	148	1417	106960	1417	78958303
5	-1023	3785	-48	-37	29	66	-28	148	1418	107059	1418	78958304
39	-1034	3781	-49	-41	26	68	-38	148	1419	107111	1419	78958333
24	-1035	3780	-45	-36	29	68	-38	148	1420	107210	1420	78958333
4	-1026	3789	-45	-38	26	61	-29	141	1421	107262	1421	78958335
-19	-1027	3764	-41	-31	24	61	-29	141	1422	107361	1422	78958337
8	-1036	3759	-41	-30	24	65	-31	143	1423	107413	1423	78958337
29	-1026	3779	-45	-30	22	65	-31	143	1424	107512	1424	78958340
-6	-1037	3800	-44	-27	21	70	-32	146	1425	107564	1425	78958341
11	-1042	3782	-44	-24	21	70	-32	146	1426	107663	1426	78958343
-34	-1030	3762	-38	-16	23	65	-29	149	1427	107715	1427	78958352
14	-1028	3763	-42	-16	19	65	-29	149	1428	107814	1428	78958352
-17	-1032	3802	-43	-10	23	60	-34	146	1429	107866	1429	78958387
-41	-1003	3790	-40	-4	21	60	-34	146	1430	107965	1430	78958388
-35	-1033	3771	-42	-3	21	68	-34	150	1431	108017	1431	78958389
18	-1021	3774	-44	2	20	68	-34	150	1432	108116	1432	78958391
0	-1018	3790	-40	5	21	64	-26	140	1433	108168	1433	78958392
-59	-996	3767	-36	16	21	64	-26	140	1434	108267	1434	78958394
-41	-1015	3775	-37	11	21	64	-30	142	1435	108319	1435	78958395
-19	-1039	3770	-40	22	24	64	-30	142	1436	108418	1436	78958397
-39	-1021	3763	-36	22	19	65	-31	141	1437	108470	1437	78958402
-68	-999	3747	-31	34	17	65	-31	141	1438	108569	1438	78958403
-29	-1006	3783	-36	30	20	63	-37	145	1439	108621	1439	78958413
-48	-1056	3783	-37	39	22	63	-37	145	1440	108720	1440	78958413
-52	-1020	3791	-34	44	18	69	-31	143	1441	108772	1441	78958415
-63	-990	3766	-35	45	18	69	-31	143	1442	108871	1442	78958424
-72	-1024	3785	-32	50	20	61	-27	147	1443	108923	1443	78958424
-45	-1029	3793	-37	52	20	61	-27	147	1444	109022	1444	78958459
-67	-1025	3790	-31	58	22	71	-33	143	1445	109074	1445	78958460
-77	-1005	3791	-30	63	20	71	-33	143	1446	109173	1446	78958462
-70	-1015	3791	-33	72	22	65	-33	141	1447	109225	1447	78958462
-36	-1022	3784	-35	72	23	65	-33	141	1448	109324	1448	78958465
-32	-999	3765	-28	74	26	64	-30	142	1449	109375	1449	78958466
-47	-1005	3763	-28	79	24	64	-30	142	1450	109474	1450	78958467
-68	-1024	3774	-34	80	26	65	-31	145	1451	109526	1451	78958473
-66	-996	3832	-29	93	29	65	-31	145	1452	109625	1452	78958475
-44	-1033	3776	-28	92	31	60	-30	142	1453	109677	1453	78958476
-82	-984	3746	-24	99	34	60	-30	142	1454	109776	1454	78958509
-54	-1019	3794	-25	110	40	68	-34	146	1455	109828	1455	78958509
-57	-1021	3824	-32	114	43	68	-34	146	1456	109927	1456	78958512
-88	-998	3789	-20	126	41	66	-26	144	1457	109979	1457	78958512
-34	-1000	3782	-28	125	44	66	-26	144	1458	110078	1458	78958515
-84	-994	3806	-24	136	47	61	-31	145	1459	110130	1459	78958516
-63	-973	3784	-24	136	44	61	-31	145	1460	110229	1460	78958516
-101	-979	3794	-17	142	47	67	-31	143	1461	110281	1461	78958521
-100	-1005	3783	-26	150	48	67	-31	143	1462	110380	1462	78958521
-76	-940	3768	-15	146	48	63	-29	143	1463	110431	1463	78958526
-128	-968	3805	-18	160	48	63	-29	143	1464	110530	1464	78958557
-128	-994	3774	-18	163	48	65	-25	151	1465	110582	1465	78958557
-106	-943	3767	-8	167	47	65	-25	151	1466	110681	1466	78958560
-98	-961	3801	-11	176	49	68	-32	144	1467	110733	1467	78958561
-121	-973	3787	-13	180	49	68	-32	144	1468	110832	1468	78958563
-115	-927	3763	4	176	43	63	-29	137	1469	110884	1469	78958564
-155	-994	3785	-6	190	47	63	-29	137	1470	110983	1470	78958565
-120	-944	3795	-7	195	50	66	-24	140	1471	111035	1471	78958569
-108	-941	3778	6	193	48	66	-24	140	1472	111134	1472	78958570
-139	-991	3809	-2	207	50	62	-28	146	1473	111186	1473	78958604
-129	-955	3799	1	211	52	62	-28	146	1474	111285	1474	78958605
-140	-949	3805	15	216	51	66	-26	144	1475	111337	1475	78958606
-169	-1007	3791	-3	229	56	66	-26	144	1476	111436	1476	78958608
-137	-932	3777	13	228	59	63	-29	145	1477	111487	1477	78958609
-150	-952	3791	15	238	59	63	-29	145	1478	111586	1478	78958612
-176	-987	3806	12	247	58	66	-26	142	1479	111638	1479	78958612
-129	-939	3763	19	244	66	66	-26	142	1480	111737	1480	78958614
-142	-986	3790	20	252	63	60	-20	142	1481	111789	1481	78958621
-198	-996	3799	14	264	64	60	-20	142	1482	111888	1482	78958621
-151	-978	3760	25	260	69	65	-21	145	1483	111940	1483	78958655
-157	-1046	3782	14	274	72	65	-21	145	1484	112039	1484	78958656
-161	-1024	3785	16	279	71	62	-20	142	1485	112091	1485	78958660
-165	-1017	3791	27	279	74	62	-20	142	1486	112190	1486	78958661
-143	-1071	3814	17	292	80	63	-31	139	1487	112242	1487	78958661
-198	-1067	3792	17	294	81	63	-31	139	1488	112341	1488	78958663
-134	-1072	3787	16	287	85	64	-24	140	1489	112392	1489	78958663
-186	-1114	3840	11	308	87	64	-24	140	1490	112491	1490	78958666
-171	-1105	3812	19	303	84	63	-21	141	1491	112543	1491	78958668
-161	-1115	3808	14	307	88	63	-21	141	1492	112642	1492	78958668
-183	-1138	3813	2	316	92	63	-23	141	1493	112694	1493	78958703
-177	-1111	3807	6	315	92	63	-23	141	1494	112793	1494	78958703
-161	-1149	3817	-4	327	93	64	-24	144	1495	112845	1495	78958706
-174	-1130	3807	-15	332	94	64	-24	144	1496	112944	1496	78958707
-165	-1130	3781	-9	330	93	61	-27	143	1497	112995	1497	78958708
-142	-1134	3815	-21	335	93	61	-27	143	1498	113094	1498	78958712
-158	-1119	3779	-14	344	94	62	-20	144	1499	113146	1499	78958713
-111	-1096	3744	-19	334	94	62	-20	144	1500	113245	1500	78958715
-155	-1114	3808	-19	356	89	64	-30	136	1501	113297	1501	78958715
-115	-1069	3798	-19	347	95	64	-30	136	1502	113396	1502	78958716
-123	-1075	3727	-18	347	95	64	-22	142	1503	113448	1503	78958751
-99	-1075	3766	-26	356	93	64	-22	142	1504	113547	1504	78958752
-75	-1074	3821	-21	348	95	63	-19	139	1505	113599	1505	78958754
-98	-1084	3854	-30	362	97	63	-19	139	1506	113698	1506	78958755
-60	-1065	3797	-31	348	94	61	-13	137	1507	113750	1507	78958757
-79	-1019	3795	-32	357	98	61	-13	137	1508	113849	1508	78958759
-40	-1059	3833	-34	354	94	62	-16	140	1509	113901	1509	78958759
-52	-1000	3820	-31	357	96	62	-16	140	1510	114000	1510	78958766
-45	-1020	3774	-41	358	102	66	-16	136	1511	114052	1511	78958766
-27	-973	3738	-38	352	96	66	-16	136	1512	114151	1512	78958769
-70	-1012	3789	-38	363	101	63	-15	139	1513	114203	1513	78958802
11	-1019	3775	-37	348	97	63	-15	139	1514	114302	1514	78958803
-85	-1009	3765	-27	357	97	62	-12	142	1515	114354	1515	78958806
-60	-1023	3737	-39	349	96	62	-12	142	1516	114453	1516	78958807
-20	-1001	3761	-31	342	94	66	-16	134	1517	114504	1517	78958809
-30	-1028	3834	-29	350	93	66	-16	134	1518	114603	1518	78958810
13	-1039	3828	-31	337	94	60	-8	134	1519	114655	1519	78958811
-45	-1032	3791	-25	343	96	60	-8	134	1520	114754	1520	78958814
5	-1033	3820	-33	339	96	62	-18	148	1521	114806	1521	78958815
-23	-1051	3905	-32	341	95	62	-18	148	1522	114905	1522	78958818
0	-1027	3852	-27	336	94	59	-11	141	1523	114957	1523	78958849
9	-1037	3847	-44	332	94	59	-11	141	1524	115056	1524	78958850
-32	-1040	3790	-38	326	89	61	-11	139	1525	115108	1525	78958853
0	-1008	3795	-47	319	87	61	-11	139	1526	115207	1526	78958853
-24	-1004	3786	-41	312	84	62	-18	136	1527	115258	1527	78958857
6	-1045	3773	-50	315	85	62	-18	136	1528	115358	1528	78958857
50	-998	3779	-43	301	83	60	-10	134	1529	115410	1529	78958858
21	-1030	3769	-38	311	86	60	-10	134	1530	115509	1530	78958862
96	-1021	3738	-39	293	79	55	-11	137	1531	115561	1531	78958862
19	-1025	3757	-37	293	81	55	-11	137	1532	115660	1532	78958897
78	-1042	3818	-45	286	78	67	-9	137	1533	115712	1533	78958897
102	-1041	3802	-41	268	73	67	-9	137	1534	115811	1534	78958899
20	-1053	3829	-43	266	70	64	-12	136	1535	115863	1535	78958900
142	-1031	3811	-42	241	64	64	-12	136	1536	115962	1536	78958901
38	-1065	3852	-44	257	69	66	-10	132	1537	116014	1537	78958904
165	-1047	3804	-55	228	58	66	-10	132	1538	116113	1538	78958904
35	-1041	3803	-45	242	66	57	-11	135	1539	116165	1539	78958907
143	-1042	3813	-59	224	62	57	-11	135	1540	116264	1540	78958913
86	-1014	3791	-46	218	58	61	-9	133	1541	116316	1541	78958914
82	-1031	3789	-56	223	58	61	-9	133	1542	116415	1542	78958973
166	-1012	3722	-54	184	52	64	-8	140	1543	116466	1543	78958974
70	-1002	3738	-48	208	50	64	-8	140	1544	116565	1544	78958977
231	-1006	3727	-59	162	45	65	-9	143	1545	116617	1545	78958978
89	-996	3755	-38	181	48	65	-9	143	1546	116716	1546	78958980
198	-997	3730	-49	155	35	60	-2	134	1547	116768	1547	78958981
131	-989	3788	-42	152	41	60	-2	134	1548	116867	1548	78958983
160	-1000	3800	-40	154	37	62	-6	132	1549	116919	1549	78958984
204	-1018	3770	-46	125	33	62	-6	132	1550	117018	1550	78958985
96	-994	3808	-34	136	37	63	-11	137	1551	117070	1551	78958986
226	-1028	3780	-52	106	29	63	-11	137	1552	117169	1552	78958988
117	-1014	3833	-40	106	28	58	-6	136	1553	117221	1553	78958989
191	-1009	3790	-45	88	21	58	-6	136	1554	117320	1554	78958991
134	-1023	3810	-50	79	24	63	-9	133	1555	117372	1555	78958992
136	-987	3808	-44	75	21	63	-9	133	1556	117471	1556	78958993
178	-1004	3749	-48	54	20	67	-13	141	1557	117523	1557	78958997
113	-957	3722	-40	59	16	67	-13	141	1558	117622	1558	78958998
139	-1008	3735	-49	42	15	60	-6	134	1559	117674	1559	78959010
91	-1001	3759	-47	35	16	60	-6	134	1560	117773	1560	78959010
153	-979	3744	-36	18	13	69	-7	137	1561	117825	1561	78959012
142	-1030	3743	-38	11	10	69	-7	137	1562	117924	1562	78959044
117	-1008	3763	-39	-5	2	59	-7	129	1563	117976	1563	78959044
70	-1046	3786	-36	-10	6	59	-7	129	1564	118075	1564	78959048
114	-1053	3797	-43	-23	3	61	-9	135	1565	118127	1565	78959048
59	-1029	3810	-40	-30	1	61	-9	135	1566	118226	1566	78959050
72	-1039	3841	-46	-32	1	63	-1	131	1567	118278	1567	78959052
82	-1030	3830	-46	-50	-3	63	-1	131	1568	118377	1568	78959052
-10	-1032	3777	-39	-37	-8	62	-4	138	1569	118429	1569	78959059
116	-1056	3803	-60	-75	-11	62	-4	138	1570	118528	1570	78959059
20	-1008	3805	-40	-67	-10	59	-5	137	1571	118580	1571	78959060
59	-1047	3815	-65	-80	-15	59	-5	137	1572	118679	1572	78959093
36	-1050	3767	-47	-95	-16	60	-8	142	1573	118731	1573	78959093
27	-997	3772	-46	-85	-18	60	-8	142	1574	118830	1574	78959096
90	-1000	3738	-52	-114	-23	58	-6	136	1575	118882	1575	78959097
-52	-970	3789	-42	-87	-19	58	-6	136	1576	118981	1576	78959099
100	-1010	3796	-57	-127	-25	61	-11	135	1577	119033	1577	78959100
-31	-1035	3805	-42	-110	-21	61	-11	135	1578	119132	1578	78959101
118	-972	3780	-49	-142	-32	62	-4	134	1579	119184	1579	78959105
-25	-1021	3740	-39	-136	-27	62	-4	134	1580	119283	1580	78959106
6	-1022	3776	-54	-152	-32	66	-6	138	1581	119334	1581	78959140
63	-977	3765	-41	-176	-36	66	-6	138	1582	119434	1582	78959141
-66	-1048	3828	-52	-153	-30	62	-6	138	1583	119486	1583	78959143
75	-980	3789	-47	-190	-36	62	-6	138	1584	119585	1584	78959144
-54	-1007	3819	-43	-157	-27	63	-9	135	1585	119637	1585	78959145
89	-983	3780	-46	-194	-30	63	-9	135	1586	119736	1586	78959148
-91	-983	3780	-37	-167	-20	64	-6	136	1587	119788	1587	78959148
30	-1020	3798	-55	-193	-27	64	-6	136	1588	119887	1588	78959150
-54	-991	3792	-43	-186	-19	58	-8	134	1589	119939	1589	78959157
-27	-952	3750	-42	-193	-23	58	-8	134	1590	120038	1590	78959157
-30	-968	3735	-38	-210	-26	63	-13	135	1591	120090	1591	78959192
-80	-962	3770	-35	-194	-23	63	-13	135	1592	120189	1592	78959197
-20	-971	3768	-39	-225	-27	61	-7	137	1593	120241	1593	78959200
-118	-961	3780	-32	-199	-23	61	-7	137	1594	120340	1594	78959201
25	-974	3762	-33	-230	-29	62	-10	138	1595	120392	1595	78959203
-82	-955	3780	-18	-211	-20	62	-10	138	1596	120491	1596	78959204
-5	-973	3782	-31	-229	-29	61	-9	133	1597	120543	1597	78959205
-84	-980	3789	-21	-230	-24	61	-9	133	1598	120642	1598	78959209
-54	-989	3830	-27	-235	-28	63	-7	133	1599	120694	1599	78959210
-44	-980	3798	-23	-254	-30	63	-7	133	1600	120793	1600	78959212
-132	-988	3805	-24	-235	-24	61	-19	135	1601	120845	1601	78959239
-5	-968	3804	-33	-267	-26	61	-19	135	1602	120944	1602	78959240
-172	-964	3821	-13	-241	-22	63	-11	143	1603	120996	1603	78959241
-35	-963	3793	-28	-266	-25	63	-11	143	1604	121095	1604	78959243
-118	-956	3783	-15	-255	-17	56	-10	136	1605	121147	1605	78959243
-66	-969	3768	-20	-257	-21	56	-10	136	1606	121246	1606	78959247
-76	-962	3776	-15	-269	-20	60	-10	136	1607	121297	1607	78959247
-130	-966	3784	-9	-252	-17	60	-10	136	1608	121397	1608	78959249
-66	-993	3769	-16	-276	-16	65	-15	137	1609	121449	1609	78959250
-163	-970	3797	-9	-253	-11	65	-15	137	1610	121548	1610	78959251
-82	-1020	3788	-18	-270	-10	62	-14	138	1611	121600	1611	78959289
-144	-1045	3789	-17	-260	-6	62	-14	138	1612	121699	1612	78959289
-60	-1024	3751	-18	-265	-7	63	-15	139	1613	121751	1613	78959293
-84	-1071	3810	-19	-267	-3	63	-15	139	1614	121850	1614	78959293
-86	-1073	3810	-19	-260	-3	61	-15	135	1615	121902	1615	78959293
-63	-1064	3788	-25	-276	0	61	-15	135	1616	122001	1616	78959296
-135	-1107	3801	-19	-270	7	65	-13	137	1617	122053	1617	78959297
-106	-1108	3818	-26	-273	9	65	-13	137	1618	122152	1618	78959300
-68	-1109	3831	-30	-279	11	62	-16	136	1619	122204	1619	78959300
-108	-1118	3796	-32	-270	16	62	-16	136	1620	122303	1620	78959304
-37	-1128	3789	-41	-278	21	59	-13	139	1621	122355	1621	78959337
-68	-1106	3784	-39	-276	24	59	-13	139	1622	122454	1622	78959337
-86	-1140	3811	-45	-277	27	63	-11	141	1623	122506	1623	78959340
-89	-1109	3771	-46	-292	29	63	-11	141	1624	122605	1624	78959341
-71	-1126	3785	-53	-276	26	59	-21	137	1625	122657	1625	78959343
-39	-1090	3747	-56	-293	25	59	-21	137	1626	122756	1626	78959344
-127	-1112	3781	-54	-285	29	60	-12	140	1627	122808	1627	78959345
-63	-1106	3800	-59	-293	28	60	-12	140	1628	122907	1628	78959349
-143	-1072	3796	-56	-288	33	64	-22	142	1629	122959	1629	78959350
-60	-1037	3757	-49	-285	29	64	-22	142	1630	123058	1630	78959353
-56	-1117	3789	-62	-288	28	64	-18	146	1631	123110	1631	78959386
-102	-1087	3828	-56	-271	29	64	-18	146	1632	123209	1632	78959386
-19	-1085	3799	-64	-294	27	65	-21	137	1633	123260	1633	78959389
-126	-1070	3781	-68	-280	28	65	-21	137	1634	123360	1634	78959389
29	-1044	3791	-78	-301	19	62	-14	140	1635	123412	1635	78959394
-56	-1074	3812	-70	-294	24	62	-14	140	1636	123511	1636	78959395
-7	-1000	3765	-72	-292	17	64	-12	138	1637	123563	1637	78959396
-16	-1032	3722	-74	-309	18	64	-12	138	1638	123662	1638	78959401
-72	-1038	3811	-70	-284	19	61	-19	137	1639	123714	1639	78959401
82	-1041	3785	-77	-314	14	61	-19	137	1640	123813	1640	78959411
-132	-997	3747	-51	-279	13	63	-19	143	1641	123865	1641	78959412
46	-1041	3779	-80	-313	9	63	-19	143	1642	123964	1642	78959415
-94	-1022	3810	-55	-292	15	62	-20	142	1643	124016	1643	78959449
-11	-1019	3837	-81	-304	5	62	-20	142	1644	124115	1644	78959450
-46	-1017	3772	-65	-311	4	68	-20	144	1645	124167	1645	78959453
-67	-1046	3847	-82	-286	6	68	-20	144	1646	124266	1646	78959454
80	-1020	3786	-73	-322	0	61	-17	139	1647	124318	1647	78959455
-86	-1047	3844	-72	-273	7	61	-17	139	1648	124417	1648	78959457
91	-1030	3796	-79	-320	-3	61	-17	141	1649	124469	1649	78959458
-75	-1036	3797	-67	-276	7	61	-17	141	1650	124568	1650	78959460
91	-1029	3803	-89	-311	-4	66	-22	144	1651	124620	1651	78959461
5	-1030	3813	-76	-298	2	66	-22	144	1652	124719	1652	78959464
70	-1036	3821	-90	-305	-6	67	-23	143	1653	124771	1653	78959498
65	-1004	3771	-80	-321	-5	67	-23	143	1654	124870	1654	78959498
27	-1061	3824	-88	-304	-6	62	-24	144	1655	124922	1655	78959501
133	-1028	3734	-86	-338	-13	62	-24	144	1656	125021	1656	78959502
-11	-1061	3806	-82	-306	-5	63	-17	139	1657	125073	1657	78959504
122	-1023	3788	-87	-338	-10	63	-17	139	1658	125172	1658	78959505
-14	-1075	3830	-92	-308	-3	61	-23	135	1659	125224	1659	78959506
120	-1024	3799	-85	-339	-12	61	-23	135	1660	125323	1660	78959510
-5	-1077	3783	-84	-316	-2	66	-22	140	1661	125374	1661	78959510
141	-1015	3821	-85	-333	-12	66	-22	140	1662	125474	1662	78959513
51	-1028	3777	-85	-326	-6	62	-18	142	1663	125526	1663	78959524
66	-1047	3806	-95	-324	-4	62	-18	142	1664	125625	1664	78959525
87	-1039	3751	-87	-339	-3	70	-24	142	1665	125677	1665	78959559
8	-1028	3821	-92	-310	-1	70	-24	142	1666	125776	1666	78959560
137	-1026	3777	-94	-346	-6	66	-22	146	1667	125828	1667	78959561
-49	-1021	3755	-89	-309	3	66	-22	146	1668	125927	1668	78959562
139	-1013	3751	-95	-341	-9	60	-22	142	1669	125979	1669	78959563
-7	-1016	3778	-83	-317	0	60	-22	142	1670	126078	1670	78959566
72	-1011	3774	-88	-329	-8	62	-24	142	1671	126130	1671	78959566
20	-1036	3789	-82	-331	-9	62	-24	142	1672	126229	1672	78959569
40	-1010	3809	-77	-326	-10	65	-27	137	1673	126281	1673	78959570
84	-1030	3779	-82	-346	-8	65	-27	137	1674	126380	1674	78959571
-23	-1033	3809	-82	-316	-12	66	-30	142	1675	126432	1675	78959614
77	-1047	3813	-94	-340	-15	66	-30	142	1676	126531	1676	78959614
-49	-1041	3837	-81	-322	-9	62	-28	148	1677	126583	1677	78959617
64	-1006	3762	-88	-334	-18	62	-28	148	1678	126682	1678	78959617
-2	-1027	3794	-84	-329	-19	65	-29	139	1679	126734	1679	78959620
-21	-1031	3798	-80	-323	-22	65	-29	139	1680	126833	1680	78959621
2	-1006	3778	-84	-331	-23	67	-27	147	1681	126885	1681	78959621
-62	-1022	3787	-76	-324	-22	67	-27	147	1682	126984	1682	78959624
16	-1016	3786	-82	-326	-23	59	-27	139	1683	127036	1683	78959626
-65	-1035	3837	-81	-320	-22	59	-27	139	1684	127135	1684	78959627
-48	-974	3783	-68	-307	-24	64	-30	146	1685	127187	1685	78959633
-39	-1033	3758	-85	-310	-16	64	-30	146	1686	127286	1686	78959633
-77	-1019	3781	-72	-296	-13	61	-29	143	1687	127338	1687	78959644
-36	-1035	3881	-85	-294	-18	61	-29	143	1688	127437	1688	78959644
-89	-1019	3821	-72	-287	-14	68	-30	146	1689	127489	1689	78959646
-57	-1026	3783	-83	-284	-18	68	-30	146	1690	127588	1690	78959680
-41	-1017	3786	-77	-283	-17	68	-28	148	1691	127640	1691	78959681
-67	-1058	3880	-86	-268	-11	68	-28	148	1692	127739	1692	78959683
-19	-1012	3808	-75	-285	-16	66	-28	140	1693	127791	1693	78959684
-122	-1021	3786	-88	-262	-13	66	-28	140	1694	127890	1694	78959686
-8	-1027	3810	-87	-282	-18	65	-29	143	1695	127942	1695	78959688
-169	-1006	3786	-73	-251	-9	65	-29	143	1696	128041	1696	78959688
-51	-993	3805	-88	-266	-17	67	-35	139	1697	128093	1697	78959692
-173	-969	3732	-65	-250	-12	67	-35	139	1698	128192	1698	78959692
-102	-1026	3815	-95	-233	-8	67	-37	145	1699	128244	1699	78959727
-106	-973	3757	-70	-240	-12	67	-37	145	1700	128343	1700	78959727
-172	-972	3792	-76	-208	-6	65	-35	149	1701	128395	1701	78959729
-53	-962	3741	-76	-234	-8	65	-35	149	1702	128494	1702	78959730
-223	-953	3802	-65	-188	-6	66	-28	138	1703	128546	1703	78959731
-55	-947	3761	-74	-217	-16	66	-28	138	1704	128645	1704	78959735
-230	-974	3784	-59	-174	-5	66	-36	148	1705	128697	1705	78959735
-78	-902	3762	-64	-192	-14	66	-36	148	1706	128796	1706	78959737
-225	-952	3776	-57	-165	-2	67	-29	145	1707	128848	1707	78959743
-139	-915	3772	-61	-159	-8	67	-29	145	1708	128947	1708	78959744
-169	-927	3751	-47	-159	-6	64	-34	142	1709	128999	1709	78959753
-210	-923	3794	-48	-128	-7	64	-34	142	1710	129098	1710	78959753
-87	-907	3757	-40	-154	-8	66	-32	148	1711	129150	1711	78959757
-252	-935	3775	-33	-111	-2	66	-32	148	1712	129249	1712	78959794
-100	-916	3781	-35	-141	-14	63	-37	149	1713	129301	1713	78959795
-264	-919	3795	-23	-103	-3	63	-37	149	1714	129400	1714	78959796
-134	-926	3782	-31	-118	-9	65	-31	145	1715	129452	1715	78959796
-244	-924	3779	-16	-99	-6	65	-31	145	1716	129551	1716	78959797
-208	-922	3778	-16	-85	-3	68	-30	142	1717	129603	1717	78959798
-145	-914	3777	-19	-86	-1	68	-30	142	1718	129702	1718	78959799
-249	-925	3780	-3	-51	5	62	-36	142	1719	129754	1719	78959802
-129	-944	3780	-13	-66	2	62	-36	142	1720	129853	1720	78959802
-232	-920	3817	1	-39	8	68	-38	144	1721	129905	1721	78959805
-181	-931	3755	-2	-39	7	68	-38	144	1722	130004	1722	78959839
-228	-946	3797	4	-24	14	61	-33	145	1723	130056	1723	78959840
-207	-942	3799	12	-10	13	61	-33	145	1724	130155	1724	78959843
-199	-970	3773	7	-2	16	72	-38	148	1725	130207	1725	78959843
-245	-965	3797	15	14	27	72	-38	148	1726	130306	1726	78959847
-192	-993	3736	2	21	32	65	-35	145	1727	130358	1727	78959847
-192	-1024	3779	10	36	35	65	-35	145	1728	130457	1728	78959849
-200	-1031	3780	14	46	39	65	-37	145	1729	130509	1729	78959850
-188	-1062	3771	7	56	47	65	-37	145	1730	130608	1730	78959851
-184	-1075	3785	7	61	46	59	-37	147	1731	130660	1731	78959887
-176	-1078	3781	8	72	52	59	-37	147	1732	130759	1732	78959888
-218	-1109	3795	7	82	58	69	-35	147	1733	130811	1733	78959890
-242	-1106	3835	6	86	56	69	-35	147	1734	130910	1734	78959891
-257	-1132	3795	1	105	63	62	-32	144	1735	130962	1735	78959892
-156	-1134	3805	-1	109	67	62	-32	144	1736	131061	1736	78959895
-212	-1156	3847	-9	128	69	60	-34	144	1737	131113	1737	78959897
-194	-1139	3817	-13	136	71	60	-34	144	1738	131212	1738	78959898
-188	-1140	3743	-15	142	76	63	-27	141	1739	131263	1739	78959902
-163	-1167	3716	-35	154	74	63	-27	141	1740	131363	1740	78959902
-157	-1115	3753	-28	159	71	70	-28	148	1741	131415	1741	78959912
-224	-1138	3805	-27	177	73	70	-28	148	1742	131514	1742	78959913
-183	-1138	3759	-34	176	72	65	-35	149	1743	131566	1743	78959916
-172	-1131	3733	-28	185	74	65	-35	149	1744	131665	1744	78959948
-167	-1147	3748	-29	197	74	67	-29	145	1745	131717	1745	78959949
-143	-1106	3801	-29	204	74	67	-29	145	1746	131816	1746	78959952
-151	-1129	3816	-36	219	76	66	-34	144	1747	131868	1747	78959952
-123	-1097	3747	-40	219	75	66	-34	144	1748	131967	1748	78959954
-135	-1101	3793	-43	232	79	68	-30	142	1749	132019	1749	78959956
-62	-1056	3828	-44	235	78	68	-30	142	1750	132118	1750	78959957
-93	-1032	3751	-33	243	79	67	-33	137	1751	132170	1751	78959960
-81	-1070	3765	-54	245	81	67	-33	137	1752	132269	1752	78959961
-26	-1015	3769	-52	249	83	60	-32	142	1753	132321	1753	78959963
-63	-996	3782	-42	261	87	60	-32	142	1754	132420	1754	78959973
-63	-1030	3753	-46	261	90	63	-31	143	1755	132472	1755	78959973
-122	-990	3744	-37	271	90	63	-31	143	1756	132571	1756	78960010
-87	-1019	3731	-40	275	91	69	-33	149	1757	132623	1757	78960028
-106	-1021	3729	-45	282	98	69	-33	149	1758	132722	1758	78960028
-76	-1000	3761	-32	284	97	64	-32	150	1759	132774	1759	78960029
-25	-1022	3796	-41	286	99	64	-32	150	1760	132873	1760	78960029
-37	-1004	3775	-32	298	101	73	-25	145	1761	132925	1761	78960029
-63	-1031	3817	-32	298	99	73	-25	145	1762	133024	1762	78960030
-68	-1037	3814	-26	300	98	65	-25	143	1763	133076	1763	78960030
-100	-1023	3875	-31	304	103	65	-25	143	1764	133175	1764	78960030
-42	-1045	3814	-34	302	98	65	-27	143	1765	133227	1765	78960031
-53	-1038	3872	-45	313	96	65	-27	143	1766	133326	1766	78960059
-29	-1017	3865	-33	312	95	64	-24	146	1767	133377	1767	78960059
-66	-1070	3843	-52	330	103	64	-24	146	1768	133477	1768	78960061
38	-1013	3826	-36	320	98	66	-26	144	1769	133529	1769	78960062
-24	-1034	3792	-48	342	107	66	-26	144	1770	133628	1770	78960064
52	-1024	3787	-49	322	98	67	-25	137	1771	133680	1771	78960065
10	-1022	3782	-48	333	98	67	-25	137	1772	133779	1772	78960066
38	-1012	3776	-47	316	94	59	-23	143	1773	133831	1773	78960070
38	-1027	3761	-40	314	93	59	-23	143	1774	133930	1774	78960071
38	-1004	3788	-43	311	88	61	-27	139	1775	133982	1775	78960075
48	-1036	3827	-41	305	89	61	-27	139	1776	134081	1776	78960108
-7	-1044	3837	-39	319	96	68	-24	144	1777	134133	1777	78960109
74	-1042	3831	-46	309	92	68	-24	144	1778	134232	1778	78960112
1	-1055	3879	-38	322	100	61	-23	143	1779	134284	1779	78960112
73	-1045	3848	-52	319	100	61	-23	143	1780	134383	1780	78960115
51	-1033	3843	-48	314	102	63	-23	133	1781	134435	1781	78960116
48	-1053	3781	-52	316	100	63	-23	133	1782	134534	1782	78960116
94	-1015	3762	-55	304	100	61	-21	139	1783	134586	1783	78960120
40	-995	3768	-49	312	102	61	-21	139	1784	134685	1784	78960120
64	-1032	3735	-59	306	101	63	-25	149	1785	134737	1785	78960123
63	-982	3718	-45	305	102	63	-25	149	1786	134836	1786	78960155
65	-995	3736	-43	311	101	65	-19	143	1787	134888	1787	78960156
81	-1018	3729	-47	305	98	65	-19	143	1788	134987	1788	78960159
107	-987	3739	-31	305	98	61	-15	139	1789	135039	1789	78960159
93	-1003	3765	-34	301	94	61	-15	139	1790	135138	1790	78960163
105	-993	3802	-31	291	90	64	-18	142	1791	135190	1791	78960163
100	-998	3795	-26	289	90	64	-18	142	1792	135289	1792	78960165
86	-1012	3777	-39	279	83	67	-19	143	1793	135341	1793	78960168
43	-987	3837	-27	279	78	67	-19	143	1794	135440	1794	78960168
45	-1038	3811	-30	267	79	69	-23	143	1795	135491	1795	78960204
46	-996	3787	-28	268	74	69	-23	143	1796	135590	1796	78960208
71	-963	3788	-31	266	71	59	-21	145	1797	135642	1797	78960209
36	-1028	3774	-38	266	72	59	-21	145	1798	135741	1798	78960209
37	-1007	3790	-29	268	72	65	-17	137	1799	135793	1799	78960209
72	-950	3725	-21	253	67	65	-17	137	1800	135892	1800	78960212
43	-1058	3757	-29	260	62	60	-14	144	1801	135944	1801	78960213
102	-991	3762	-22	243	59	60	-14	144	1802	136043	1802	78960215
14	-1016	3773	-19	249	56	64	-18	138	1803	136095	1803	78960219
48	-999	3739	-23	242	50	64	-18	138	1804	136194	1804	78960220
7	-988	3779	-17	237	55	71	-15	141	1805	136246	1805	78960253
11	-1051	3832	-20	241	52	71	-15	141	1806	136345	1806	78960254
63	-1012	3840	-19	231	47	65	-17	139	1807	136397	1807	78960255
-24	-1005	3834	-12	240	46	65	-17	139	1808	136496	1808	78960257
61	-1059	3871	-33	228	45	66	-14	142	1809	136548	1809	78960257
39	-971	3855	-19	220	42	66	-14	142	1810	136647	1810	78960261
-8	-1013	3861	-27	230	43	63	-15	135	1811	136699	1811	78960261
62	-1031	3831	-35	208	35	63	-15	135	1812	136798	1812	78960263
-19	-958	3793	-17	225	37	58	-14	140	1813	136850	1813	78960269
47	-1018	3795	-45	206	37	58	-14	140	1814	136949	1814	78960269
-18	-962	3822	-27	210	36	63	-15	139	1815	137001	1815	78960280
11	-969	3719	-32	206	36	63	-15	139	1816	137100	1816	78960280
31	-1006	3751	-30	192	33	70	-14	142	1817	137152	1817	78960282
-25	-951	3751	-16	199	29	70	-14	142	1818	137251	1818	78960315
60	-993	3762	-24	181	28	66	-12	140	1819	137303	1819	78960315
-1	-979	3791	-15	184	29	66	-12	140	1820	137402	1820	78960318
11	-972	3762	-11	176	29	62	-18	136	1821	137454	1821	78960318
5	-1006	3813	-26	164	23	62	-18	136	1822	137553	1822	78960322
-48	-949	3798	5	175	29	60	-16	134	1823	137605	1823	78960322
4	-1023	3833	-26	160	31	60	-16	134	1824	137704	1824	78960325
-64	-965	3833	-4	168	31	60	-14	140	1825	137756	1825	78960329
-17	-963	3814	-17	175	37	60	-14	140	1826	137855	1826	78960330
-7	-957	3782	-12	153	38	68	-14	140	1827	137907	1827	78960339
-64	-946	3776	-14	179	37	68	-14	140	1828	138006	1828	78960340
24	-934	3732	-12	141	37	63	-13	141	1829	138058	1829	78960343
-118	-923	3765	-8	167	42	63	-13	141	1830	138157	1830	78960377
14	-925	3680	-1	138	32	64	-10	136	1831	138209	1831	78960377
-90	-934	3723	8	155	36	64	-10	136	1832	138308	1832	78960380
-28	-930	3721	17	147	36	64	-12	140	1833	138360	1833	78960381
-56	-953	3743	15	141	36	64	-12	140	1834	138459	1834	78960383
-71	-933	3766	25	143	31	62	-8	136	1835	138511	1835	78960384
-36	-977	3793	17	131	34	62	-8	136	1836	138610	1836	78960385
-62	-956	3819	32	129	30	58	-6	138	1837	138662	1837	78960388
-60	-977	3802	25	124	27	58	-6	138	1838	138761	1838	78960389
-74	-954	3818	29	118	29	68	-16	138	1839	138813	1839	78960392
-63	-961	3831	30	113	28	68	-16	138	1840	138912	1840	78960402
-56	-969	3829	21	111	27	60	-20	138	1841	138964	1841	78960427
-54	-967	3817	26	102	29	60	-20	138	1842	139063	1842	78960437
-103	-962	3765	31	111	31	64	-8	136	1843	139115	1843	78960438
-86	-958	3779	24	105	30	64	-8	136	1844	139214	1844	78960440
-90	-938	3788	36	101	34	64	-12	140	1845	139266	1845	78960441
-91	-988	3771	29	104	36	64	-12	140	1846	139365	1846	78960441
-82	-982	3778	34	96	33	62	-8	134	1847	139417	1847	78960445
-106	-974	3748	42	100	34	62	-8	134	1848	139516	1848	78960445
-100	-993	3794	34	94	35	54	-6	132	1849	139568	1849	78960447
-88	-978	3815	42	93	34	54	-6	132	1850	139667	1850	78960449
-93	-1016	3822	43	91	34	63	-15	139	1851	139719	1851	78960449
-130	-1057	3797	30	92	40	63	-15	139	1852	139818	1852	78960485
-87	-1076	3813	32	84	39	66	-8	144	1853	139870	1853	78960485
-108	-1108	3788	27	89	39	66	-8	144	1854	139969	1854	78960488
-104	-1134	3849	22	87	43	59	-7	135	1855	140021	1855	78960489
-76	-1137	3809	20	79	43	59	-7	135	1856	140120	1856	78960489
-108	-1166	3809	12	83	45	59	-7	135	1857	140172	1857	78960492
-83	-1173	3788	10	75	46	59	-7	135	1858	140271	1858	78960492
-95	-1192	3808	7	72	45	65	-7	131	1859	140323	1859	78960497
-75	-1193	3787	-5	69	43	65	-7	131	1860	140422	1860	78960497
-106	-1166	3819	-3	59	46	66	-8	138	1861	140474	1861	78960501
-95	-1201	3781	-16	59	43	66	-8	138	1862	140573	1862	78960534
-113	-1182	3737	-15	62	43	60	-6	142	1863	140625	1863	78960534
-77	-1169	3781	-24	56	47	60	-6	142	1864	140724	1864	78960537
-73	-1205	3757	-32	55	45	62	-6	138	1865	140776	1865	78960537
-124	-1179	3743	-41	56	47	62	-6	138	1866	140875	1866	78960540
-48	-1147	3758	-41	42	46	63	-17	139	1867	140927	1867	78960541
-100	-1168	3774	-42	50	42	63	-17	139	1868	141026	1868	78960541
-45	-1125	3717	-38	36	37	56	-8	138	1869	141078	1869	78960548
-74	-1196	3728	-53	33	44	56	-8	138	1870	141177	1870	78960549
-49	-1123	3770	-47	30	39	60	-8	138	1871	141229	1871	78960551
-25	-1114	3771	-51	19	37	60	-8	138	1872	141328	1872	78960584
-74	-1159	3790	-61	23	43	59	-13	141	1873	141380	1873	78960584
-20	-1106	3789	-61	14	38	59	-13	141	1874	141479	1874	78960587
-61	-1091	3753	-53	9	39	64	-6	136	1875	141531	1875	78960588
-31	-1097	3786	-68	10	40	64	-6	136	1876	141630	1876	78960590
-6	-1050	3802	-66	-1	39	61	-11	131	1877	141682	1877	78960591
-19	-1073	3787	-79	-3	38	61	-11	131	1878	141781	1878	78960592
-1	-1043	3778	-80	-13	38	58	-10	138	1879	141833	1879	78960596
-27	-1012	3757	-68	-21	39	58	-10	138	1880	141932	1880	78960597
1	-1055	3764	-73	-29	37	62	-14	138	1881	141984	1881	78960599
-11	-977	3757	-72	-31	37	62	-14	138	1882	142083	1882	78960631
-13	-1002	3784	-70	-43	38	68	-12	136	1883	142135	1883	78960632
-31	-1045	3749	-82	-36	35	68	-12	136	1884	142234	1884	78960635
41	-1022	3775	-75	-50	30	61	-11	135	1885	142286	1885	78960635
-12	-1028	3782	-73	-46	32	61	-11	135	1886	142385	1886	78960638
9	-1054	3780	-79	-54	30	59	-9	137	1887	142437	1887	78960639
56	-1002	3819	-77	-67	27	59	-9	137	1888	142536	1888	78960641
-23	-1053	3831	-83	-59	26	63	-5	133	1889	142588	1889	78960647
14	-1062	3868	-92	-72	20	63	-5	133	1890	142687	1890	78960648
-7	-991	3780	-73	-82	17	63	-11	139	1891	142739	1891	78960657
15	-1076	3842	-100	-81	15	63	-11	139	1892	142838	1892	78960657
23	-1010	3856	-84	-93	16	57	-9	139	1893	142890	1893	78960661
-42	-1035	3781	-92	-87	17	57	-9	139	1894	142989	1894	78960695
54	-1060	3768	-105	-102	13	59	-7	135	1895	143041	1895	78960695
43	-997	3806	-91	-102	12	59	-7	135	1896	143140	1896	78960698
63	-1062	3794	-103	-110	7	62	-8	136	1897	143192	1897	78960699
61	-1003	3791	-106	-124	4	62	-8	136	1898	143291	1898	78960701
42	-1023	3757	-101	-134	4	61	-9	133	1899	143343	1899	78960702
96	-1046	3790	-112	-149	-5	61	-9	133	1900	143442	1900	78960703
77	-995	3782	-93	-153	-10	56	-10	136	1901	143494	1901	78960706
49	-1070	3749	-104	-162	-8	56	-10	136	1902	143593	1902	78960706
91	-1034	3803	-104	-173	-14	63	-15	135	1903	143645	1903	78960710
90	-1020	3804	-94	-175	-13	63	-15	135	1904	143744	1904	78960744
78	-1056	3848	-110	-182	-14	60	-16	136	1905	143796	1905	78960744
100	-995	3813	-96	-192	-20	60	-16	136	1906	143895	1906	78960747
57	-1035	3789	-103	-192	-17	65	-13	137	1907	143947	1907	78960748
122	-1042	3788	-117	-204	-21	65	-13	137	1908	144046	1908	78960750
110	-975	3782	-93	-213	-25	66	-8	136	1909	144098	1909	78960751
81	-1021	3760	-114	-217	-26	66	-8	136	1910	144197	1910	78960752
113	-1023	3738	-115	-227	-26	61	-13	133	1911	144249	1911	78960755
103	-935	3725	-93	-234	-31	61	-13	133	1912	144348	1912	78960755
99	-1035	3731	-108	-242	-32	66	-10	134	1913	144400	1913	78960791
124	-957	3729	-89	-246	-33	66	-10	134	1914	144499	1914	78960792
163	-954	3744	-82	-258	-31	67	-11	145	1915	144551	1915	78960793
126	-1006	3782	-95	-260	-33	67	-11	145	1916	144650	1916	78960795
161	-949	3755	-76	-277	-32	70	-8	138	1917	144702	1917	78960795
156	-996	3809	-81	-286	-32	70	-8	138	1918	144801	1918	78960800
136	-988	3826	-86	-293	-34	62	-12	132	1919	144853	1919	78960804
165	-941	3800	-78	-306	-32	62	-12	132	1920	144952	1920	78960804
148	-988	3799	-84	-314	-33	67	-11	131	1921	145004	1921	78960806
109	-989	3812	-84	-318	-34	67	-11	131	1922	145103	1922	78960811
147	-958	3779	-76	-336	-32	65	-17	141	1923	145155	1923	78960816
115	-1004	3826	-87	-338	-31	65	-17	141	1924	145254	1924	78960817
116	-962	3808	-72	-341	-36	60	-10	138	1925	145306	1925	78960820
112	-937	3758	-65	-353	-29	60	-10	138	1926	145405	1926	78960852
89	-997	3846	-73	-349	-25	62	-20	138	1927	145457	1927	78960853
117	-970	3774	-73	-366	-30	62	-20	138	1928	145556	1928	78960864
77	-940	3775	-60	-365	-28	60	-14	140	1929	145608	1929	78960865
104	-1001	3822	-74	-367	-27	60	-14	140	1930	145707	1930	78960866
110	-993	3837	-69	-377	-29	62	-12	140	1931	145759	1931	78960866
96	-965	3827	-66	-380	-33	62	-12	140	1932	145858	1932	78960867
62	-989	3819	-68	-387	-35	62	-14	140	1933	145910	1933	78960867
57	-1003	3783	-66	-393	-37	62	-14	140	1934	146009	1934	78960868
85	-997	3850	-61	-403	-39	61	-21	139	1935	146061	1935	78960870
13	-1038	3833	-69	-394	-38	61	-21	139	1936	146160	1936	78960896
52	-1017	3801	-66	-412	-46	69	-19	143	1937	146212	1937	78960896
58	-1008	3825	-63	-410	-47	69	-19	143	1938	146311	1938	78960900
19	-1063	3829	-70	-411	-47	64	-18	136	1939	146363	1939	78960900
32	-1014	3814	-67	-421	-52	64	-18	136	1940	146462	1940	78960903
29	-1011	3813	-63	-421	-55	59	-21	141	1941	146514	1941	78960904
-3	-1029	3853	-73	-423	-50	59	-21	141	1942	146613	1942	78960904
10	-969	3811	-66	-427	-52	65	-21	141	1943	146665	1943	78960915
-22	-1023	3761	-71	-427	-57	65	-21	141	1944	146764	1944	78960915
-9	-1030	3778	-70	-426	-53	65	-19	137	1945	146816	1945	78960950
-27	-964	3768	-61	-425	-54	65	-19	137	1946	146915	1946	78960951
-26	-990	3818	-65	-429	-55	66	-22	146	1947	146967	1947	78960953
-33	-1007	3748	-66	-423	-51	66	-22	146	1948	147066	1948	78960954
-11	-979	3740	-55	-432	-52	65	-21	143	1949	147118	1949	78960954
-48	-985	3779	-57	-427	-55	65	-21	143	1950	147217	1950	78960957
2	-989	3741	-58	-428	-58	59	-27	137	1951	147269	1951	78960958
-6	-988	3735	-49	-435	-57	59	-27	137	1952	147368	1952	78960959
-43	-1024	3790	-56	-423	-57	64	-20	138	1953	147420	1953	78960965
-2	-1026	3772	-54	-442	-56	64	-20	138	1954	147519	1954	78960965
-48	-972	3781	-40	-435	-56	67	-25	139	1955	147571	1955	78960975
-10	-1009	3787	-56	-436	-61	67	-25	139	1956	147670	1956	78960975
-57	-999	3824	-38	-431	-56	64	-24	146	1957	147722	1957	78960978
-35	-1008	3825	-45	-429	-51	64	-24	146	1958	147821	1958	78961013
-59	-1016	3816	-37	-427	-51	67	-27	147	1959	147873	1959	78961015
-80	-985	3830	-34	-421	-48	67	-27	147	1960	147972	1960	78961017
-70	-1034	3815	-45	-422	-47	64	-26	140	1961	148024	1961	78961018
-119	-999	3827	-37	-406	-46	64	-26	140	1962	148123	1962	78961021
-35	-983	3752	-42	-423	-47	64	-24	140	1963	148175	1963	78961022
-130	-1008	3787	-43	-402	-41	64	-24	140	1964	148274	1964	78961023
-61	-964	3795	-36	-409	-44	64	-26	136	1965	148326	1965	78961024
-130	-986	3772	-32	-398	-38	64	-26	136	1966	148425	1966	78961025
-117	-992	3776	-34	-385	-33	61	-31	137	1967	148477	1967	78961035
-60	-952	3809	-24	-392	-30	61	-31	137	1968	148576	1968	78961035
-121	-996	3864	-25	-376	-27	65	-25	141	1969	148628	1969	78961038
-89	-986	3849	-27	-378	-25	65	-25	141	1970	148727	1970	78961071
-114	-969	3818	-13	-372	-21	68	-36	144	1971	148779	1971	78961071
-117	-1040	3836	-30	-369	-18	68	-36	144	1972	148878	1972	78961074
-132	-1013	3837	-29	-365	-15	66	-30	142	1973	148930	1973	78961075
-113	-981	3826	-28	-364	-17	66	-30	142	1974	149029	1974	78961077
-167	-1043	3847	-37	-357	-12	68	-28	144	1975	149081	1975	78961078
-162	-986	3806	-33	-347	-8	68	-28	144	1976	149180	1976	78961079
-126	-972	3802	-29	-344	0	65	-25	143	1977	149232	1977	78961083
-192	-1020	3791	-33	-329	5	65	-25	143	1978	149331	1978	78961084
-165	-1026	3738	-34	-330	10	60	-28	144	1979	149383	1979	78961089
-155	-998	3773	-28	-321	14	60	-28	144	1980	149482	1980	78961119
-222	-1075	3776	-26	-306	18	65	-31	143	1981	149534	1981	78961120
